gyro_x,gyro_y,gyro_z,accel_x,accel_y,accel_z,eating
-9.46,-30.94,-18.80,0.99,-0.15,0.16,0
3.30,-28.99,-21.06,0.97,-0.21,0.16,0
7.69,-27.22,-22.40,0.98,-0.22,0.15,0
5.00,-23.19,-25.57,0.97,-0.26,0.17,0
2.01,-15.20,-32.04,0.95,-0.25,0.16,0
-1.16,-5.55,-42.30,1.00,-0.28,0.11,0
-9.09,3.85,-54.14,0.96,-0.32,0.14,0
-8.36,9.34,-62.13,0.99,-0.24,0.16,0
-7.20,13.61,-69.95,0.95,-0.22,0.20,0
-0.85,17.76,-74.65,0.94,-0.23,0.17,0
4.52,23.93,-70.74,0.94,-0.22,0.18,0
8.12,32.04,-62.26,0.94,-0.20,0.15,0
19.96,41.69,-56.88,0.86,-0.31,0.20,0
19.78,51.09,-54.38,0.91,-0.30,0.17,0
16.36,59.94,-45.59,0.91,-0.27,0.14,0
22.64,65.19,-38.09,0.91,-0.24,0.10,0
28.44,69.89,-33.33,0.93,-0.29,0.19,0
13.43,78.92,-26.79,0.91,-0.27,0.14,0
12.02,83.80,-24.96,0.93,-0.29,-0.03,0
12.57,78.61,-25.15,0.97,-0.30,0.04,0
3.11,77.64,-21.67,0.97,-0.16,-0.02,0
29.85,64.88,-26.98,0.98,-0.18,-0.01,0
39.61,53.41,-31.74,1.00,-0.24,0.04,0
25.27,49.38,-40.83,1.06,-0.34,-0.20,0
19.47,22.46,-46.14,0.85,-0.46,-0.12,0
11.29,9.58,-31.01,0.87,-0.46,0.02,0
15.14,9.89,-16.42,0.95,-0.37,0.03,0
11.84,11.96,-9.28,1.00,-0.39,0.00,0
5.00,8.67,-6.16,1.00,-0.40,-0.01,0
1.10,3.78,-4.27,0.97,-0.38,-0.02,0
-2.69,0.31,-0.31,0.99,-0.44,-0.05,0
-11.72,-2.56,4.09,0.98,-0.53,-0.10,0
-33.26,-8.36,9.83,0.98,-0.57,-0.12,0
-52.55,-17.09,14.34,1.00,-0.46,-0.09,0
-65.61,-26.31,20.02,0.95,-0.37,0.01,0
-69.21,-28.38,11.96,0.95,-0.30,0.04,0
-48.58,-25.02,-2.08,0.92,-0.35,0.10,0
-42.60,-18.07,-16.72,0.92,-0.26,0.06,0
-40.22,-10.50,-27.89,0.91,-0.27,0.04,0
-31.25,-6.29,-33.75,0.96,-0.32,0.05,0
-32.35,-4.15,-33.33,0.96,-0.33,0.03,0
-32.65,-4.52,-31.92,0.96,-0.35,0.03,0
-38.27,-7.02,-30.64,0.94,-0.38,-0.01,0
-44.43,-8.91,-29.05,0.93,-0.39,0.04,0
-49.62,-9.40,-26.92,0.93,-0.40,0.04,0
-52.06,-12.39,-26.73,0.91,-0.47,0.07,0
-73.36,-15.93,-20.57,0.88,-0.58,0.05,0
-95.83,-15.75,-13.79,0.86,-0.53,0.11,0
-120.54,-10.74,-4.21,0.85,-0.51,0.19,0
-139.22,-4.09,4.88,0.86,-0.34,0.24,0
-132.08,5.43,1.77,0.89,-0.17,0.25,0
-90.76,13.98,-11.23,0.97,-0.20,0.14,0
-55.05,15.20,-19.41,0.94,-0.43,0.10,0
-57.13,19.04,-8.06,0.92,-0.36,-0.01,0
-59.81,17.27,2.32,0.90,-0.36,0.07,0
-67.20,14.89,6.10,0.94,-0.29,0.03,0
-65.25,8.54,5.80,0.92,-0.28,0.04,0
-54.02,2.81,2.75,0.94,-0.30,0.10,0
-41.63,3.23,1.71,0.89,-0.27,0.14,0
-36.74,8.18,0.12,0.90,-0.27,0.18,0
-27.34,17.52,-4.39,0.95,-0.26,0.24,0
-22.77,35.46,-6.53,0.87,-0.27,0.18,0
-7.81,51.88,-8.48,0.91,-0.62,0.20,0
20.02,61.52,3.11,0.77,-0.54,0.10,0
-7.20,67.14,18.13,0.90,-0.40,0.07,0
-34.30,71.17,20.14,0.99,-0.41,0.10,0
-44.25,70.43,21.79,1.01,-0.30,-0.01,0
-61.04,60.85,16.60,1.05,-0.28,-0.10,0
-68.48,44.37,10.62,1.06,-0.24,-0.14,0
-69.09,21.12,6.77,1.01,-0.40,-0.05,0
-78.06,6.10,9.77,0.97,-0.37,0.03,0
-107.54,0.24,12.70,0.94,-0.41,0.03,0
-138.31,-1.04,15.93,0.91,-0.27,0.05,0
-149.96,-1.10,14.89,0.90,-0.22,0.06,0
-142.64,-1.04,11.47,0.88,-0.32,0.10,0
-136.11,2.56,11.90,0.89,-0.18,0.11,0
-134.03,9.46,10.25,0.89,-0.10,0.15,0
-113.53,14.59,-9.95,0.88,0.05,0.14,0
-79.96,16.60,-40.04,0.88,-0.31,0.17,0
-68.05,23.93,-43.15,0.88,-0.60,0.13,0
-68.91,32.59,-24.41,0.89,-0.72,0.01,0
-79.04,31.01,5.43,0.90,-0.41,-0.03,0
-114.93,23.19,15.93,0.91,-0.33,0.17,0
-96.31,19.65,14.47,0.90,-0.35,-0.05,0
-89.72,8.48,17.27,0.93,-0.31,-0.05,0
-90.52,-4.82,15.26,0.94,-0.11,-0.04,0
-96.01,-17.15,-1.83,0.97,-0.14,0.03,0
-100.46,-28.20,-19.23,0.93,-0.33,0.06,0
-81.79,-38.02,-20.26,0.92,-0.51,0.17,0
-70.37,-39.61,-3.54,0.92,-0.53,0.18,0
-64.21,-36.56,18.55,0.92,-0.57,0.25,0
-71.17,-27.34,43.70,0.92,-0.37,0.23,0
-93.32,-18.62,57.43,0.93,-0.11,0.14,0
-91.43,-14.28,54.26,0.92,-0.27,0.23,0
-59.51,-4.70,53.34,0.91,-0.25,0.21,0
-38.88,4.39,55.54,0.91,-0.24,0.20,0
-38.27,9.77,53.28,0.89,-0.20,0.20,0
-33.94,18.55,50.23,0.92,-0.18,0.17,0
-25.33,26.79,48.77,0.92,-0.17,0.14,0
-24.90,36.13,50.96,0.87,-0.26,0.19,0
-31.37,47.49,58.72,0.85,-0.21,0.12,0
-33.57,53.59,60.85,0.86,-0.15,0.10,0
-26.61,56.52,55.91,0.91,-0.15,0.19,0
-20.57,58.65,51.57,0.94,-0.28,0.22,0
-23.32,53.65,51.64,0.96,-0.31,0.29,0
-25.76,47.97,49.87,0.99,-0.30,0.31,0
-19.53,44.98,44.49,1.09,-0.13,0.36,0
19.90,44.07,28.50,1.09,-0.05,0.24,0
47.91,41.99,8.42,1.03,-0.07,0.19,0
66.71,42.79,-7.02,1.01,-0.12,0.12,0
67.81,42.18,-16.05,1.00,-0.18,0.04,0
55.36,37.66,-18.43,1.02,-0.15,0.09,0
58.59,31.19,-18.49,0.99,-0.15,0.08,0
60.18,25.57,-17.94,1.04,-0.18,0.08,0
42.91,20.51,-10.01,1.03,-0.24,0.09,0
14.77,18.07,4.46,1.02,-0.27,0.10,0
-19.35,15.08,9.03,0.98,-0.32,0.07,0
-57.80,10.38,-2.32,0.98,-0.10,0.01,0
-84.35,3.17,-13.92,1.00,-0.09,0.03,0
-99.98,-4.70,-27.04,0.99,-0.07,0.04,0
-104.61,-8.54,-39.06,0.97,-0.04,0.01,0
-83.98,-11.84,-49.13,0.98,-0.06,-0.04,0
-28.56,-15.32,-56.15,1.02,-0.27,0.16,0
-5.62,-12.21,-49.68,0.99,-0.32,0.18,0
7.32,-5.25,-37.29,0.97,-0.23,0.08,0
15.01,-0.61,-28.93,0.95,-0.23,0.01,0
25.21,0.92,-24.78,0.93,-0.25,-0.04,0
38.82,1.71,-20.26,0.93,-0.24,-0.10,0
57.19,1.04,-14.47,0.93,-0.24,-0.00,0
66.10,-0.12,-9.28,0.95,-0.26,0.11,0
65.37,-0.24,-7.14,0.93,-0.26,0.13,0
66.35,-1.53,-8.79,0.90,-0.25,0.13,0
71.78,0.61,-10.86,0.89,-0.28,0.17,0
70.37,8.61,-10.25,0.89,-0.33,0.18,0
62.26,18.68,-8.91,0.89,-0.37,0.18,0
50.66,27.16,-8.24,0.90,-0.39,0.14,0
35.95,33.39,-6.77,0.92,-0.44,0.07,0
21.24,34.55,-5.55,0.91,-0.43,0.02,0
10.93,33.39,-6.71,0.95,-0.36,0.00,0
6.71,31.13,-1.83,0.98,-0.29,-0.04,0
12.94,27.83,7.14,0.96,-0.25,-0.00,0
22.64,21.79,5.55,0.99,-0.28,-0.03,0
30.82,16.78,1.59,1.00,-0.30,-0.02,0
33.08,13.31,-2.26,0.97,-0.27,0.05,0
25.33,10.13,-3.72,1.00,-0.26,0.01,0
28.44,6.16,0.37,1.03,-0.27,-0.01,0
32.23,-0.79,3.17,1.02,-0.27,-0.01,0
31.43,-5.13,5.92,0.99,-0.26,-0.10,0
33.63,-0.43,0.79,0.98,-0.31,-0.12,0
29.85,6.59,-7.14,1.00,-0.37,-0.13,0
21.24,10.62,-11.41,1.05,-0.36,-0.12,0
10.56,13.31,-11.17,1.07,-0.33,-0.12,0
5.98,11.17,-9.46,1.09,-0.31,-0.08,0
1.34,5.55,-7.75,1.08,-0.32,-0.09,0
-0.43,-2.26,-5.98,1.07,-0.33,-0.11,0
-2.14,-6.96,-4.39,1.03,-0.31,-0.15,0
-1.53,-8.12,-4.58,1.03,-0.33,-0.15,0
-1.53,-6.41,-6.29,1.04,-0.33,-0.15,0
-2.32,-4.27,-9.83,1.04,-0.32,-0.16,0
-1.53,-1.65,-13.18,1.04,-0.31,-0.19,0
0.49,3.36,-16.78,1.03,-0.33,-0.22,0
2.08,10.19,-20.81,1.07,-0.37,-0.20,0
-1.22,13.85,-23.86,1.11,-0.39,-0.19,0
-7.75,10.50,-24.29,1.12,-0.39,-0.23,0
-13.92,2.81,-23.74,1.09,-0.41,-0.26,0
-19.96,-4.58,-23.93,1.05,-0.42,-0.29,0
-27.65,-7.93,-23.50,1.02,-0.44,-0.26,0
-37.66,-8.18,-23.25,0.99,-0.44,-0.23,0
-48.89,-5.43,-24.60,0.96,-0.43,-0.21,0
-59.51,-0.37,-26.49,0.93,-0.40,-0.18,0
-66.89,3.91,-26.98,0.89,-0.38,-0.16,0
-71.04,8.73,-25.70,0.85,-0.38,-0.15,0
-74.46,16.72,-23.32,0.81,-0.36,-0.12,0
-76.29,26.37,-20.26,0.76,-0.36,-0.10,0
-78.49,39.37,-16.48,0.69,-0.40,-0.14,0
-84.90,60.00,-13.24,0.66,-0.44,-0.14,0
-98.08,86.55,-12.51,0.68,-0.46,-0.10,0
-114.44,114.14,-15.50,0.69,-0.43,-0.09,0
-127.26,139.04,-21.06,0.82,-0.29,-0.01,0
-121.03,148.38,-20.32,0.89,-0.11,0.12,0
-90.76,130.80,-0.85,0.86,-0.07,0.14,0
-44.92,99.43,31.19,0.81,-0.13,0.10,0
-1.95,70.74,62.50,0.76,-0.21,0.04,0
24.66,54.38,88.68,0.69,-0.30,-0.03,0
31.25,55.66,108.95,0.64,-0.38,-0.08,0
22.22,73.43,119.57,0.64,-0.40,-0.11,0
4.82,100.77,117.43,0.66,-0.40,-0.14,0
-17.09,131.59,103.45,0.68,-0.39,-0.18,0
-43.09,164.31,79.77,0.72,-0.40,-0.23,0
-72.94,196.04,50.54,0.75,-0.40,-0.27,0
-103.45,222.53,20.02,0.76,-0.36,-0.31,0
-127.56,241.39,-6.29,0.82,-0.24,-0.29,0
-136.54,249.45,-23.07,0.84,-0.14,-0.23,0
-128.78,243.53,-25.33,0.79,-0.08,-0.21,0
-104.80,230.29,-15.63,0.83,-0.01,-0.16,0
-66.04,213.44,1.65,0.90,0.11,-0.05,0
-11.66,185.85,25.94,0.91,0.19,0.03,0
53.53,147.71,54.26,0.90,0.21,0.00,0
120.73,111.21,78.67,0.87,0.19,-0.09,0
182.07,85.45,89.60,0.83,0.17,-0.18,0
229.37,73.36,88.07,0.82,0.14,-0.25,0
259.70,72.69,76.66,0.81,0.11,-0.30,0
273.56,80.99,55.73,0.77,0.09,-0.36,0
272.52,92.77,35.03,0.71,0.08,-0.43,0
263.98,105.65,23.19,0.70,0.08,-0.53,0
250.00,115.17,15.87,0.74,0.12,-0.55,0
239.44,115.66,9.64,0.76,0.19,-0.56,0
239.56,108.70,4.94,0.77,0.22,-0.56,0
245.42,97.53,3.97,0.79,0.19,-0.59,0
251.16,83.62,4.09,0.79,0.17,-0.62,0
254.03,71.72,5.86,0.80,0.09,-0.62,0
248.41,63.17,10.13,0.83,0.03,-0.63,0
230.96,54.63,16.48,0.84,0.05,-0.68,0
213.62,45.72,18.86,0.84,0.06,-0.69,0
195.19,36.38,15.44,0.88,0.08,-0.68,0
173.89,22.89,15.81,0.87,0.08,-0.75,0
164.25,10.86,11.90,0.90,0.16,-0.76,0
158.51,-1.65,5.37,0.90,0.24,-0.71,0
158.51,-16.85,0.55,0.90,0.28,-0.70,0
158.02,-33.45,-1.46,0.87,0.33,-0.68,0
159.91,-46.88,-3.11,0.84,0.36,-0.66,0
161.07,-56.58,-1.77,0.85,0.39,-0.64,0
162.41,-61.71,0.37,0.86,0.39,-0.59,0
158.87,-65.55,-5.92,0.88,0.42,-0.56,0
155.33,-70.01,-17.33,0.92,0.49,-0.51,0
157.41,-76.78,-27.89,0.96,0.47,-0.46,0
160.46,-87.52,-32.10,0.96,0.47,-0.47,0
161.62,-99.85,-33.02,0.95,0.44,-0.50,0
158.94,-110.72,-34.18,0.92,0.41,-0.52,0
152.77,-117.07,-38.51,0.90,0.39,-0.49,0
144.04,-117.92,-40.89,0.92,0.47,-0.46,0
135.93,-119.75,-47.06,0.92,0.58,-0.41,0
135.19,-124.69,-55.48,0.95,0.59,-0.35,0
139.89,-133.85,-57.92,1.00,0.60,-0.37,0
138.67,-147.22,-65.49,0.96,0.42,-0.41,0
127.26,-154.11,-70.80,0.92,0.31,-0.45,0
101.75,-151.55,-77.88,1.00,0.25,-0.44,0
72.27,-154.72,-77.58,1.03,0.25,-0.39,0
46.75,-162.84,-79.53,1.11,0.39,-0.32,0
36.19,-179.44,-87.10,1.11,0.40,-0.28,0
32.29,-195.31,-109.99,1.16,0.31,-0.21,0
17.64,-207.40,-127.08,1.11,0.18,-0.24,0
-0.18,-216.74,-148.38,0.94,0.34,-0.26,0
-8.73,-226.62,-162.90,0.79,0.26,-0.13,0
-16.42,-222.29,-167.36,0.77,0.14,-0.04,0
-40.28,-205.69,-162.11,0.72,0.05,0.01,0
-65.12,-178.22,-159.61,0.78,0.05,0.07,0
-89.11,-156.43,-156.62,0.93,0.03,0.12,0
-109.62,-149.90,-153.08,1.08,-0.01,0.14,0
-135.86,-153.14,-153.63,1.16,-0.11,0.12,0
-171.87,-157.59,-161.62,1.22,0.05,0.11,0
-203.12,-175.96,-160.46,1.11,0.23,0.06,0
-201.11,-203.86,-169.49,0.97,0.26,0.20,0
-190.49,-221.44,-186.28,0.85,0.19,0.20,0
-180.79,-225.34,-202.82,0.67,0.31,0.35,0
-165.89,-218.44,-209.05,0.64,0.18,0.58,0
-162.17,-193.97,-210.08,0.69,-0.02,0.64,0
-181.52,-162.23,-205.32,0.75,-0.07,0.61,0
-207.52,-134.52,-202.94,0.79,-0.05,0.63,0
-229.19,-116.33,-198.79,0.84,0.07,0.71,0
-241.82,-106.69,-190.67,0.84,0.14,0.74,0
-245.06,-100.46,-182.68,0.86,0.21,0.79,0
-238.77,-100.71,-175.60,0.87,0.27,0.79,0
-225.59,-105.65,-166.75,0.81,0.26,0.82,0
-210.69,-107.06,-152.04,0.68,0.20,0.81,0
-199.28,-95.09,-137.33,0.65,0.10,0.74,0
-200.68,-72.69,-133.73,0.69,-0.03,0.64,0
-222.23,-47.18,-142.58,0.70,0.04,0.67,0
-244.69,-25.82,-151.18,0.82,0.05,0.62,0
-265.08,-11.17,-161.13,0.98,0.21,0.61,0
-277.77,-23.93,-168.40,0.97,0.23,0.54,0
-286.93,-44.25,-169.49,0.89,0.10,0.54,0
-299.99,-52.37,-161.50,0.79,0.13,0.57,0
-310.49,-45.04,-151.73,0.78,0.25,0.62,0
-310.42,-33.20,-144.71,0.79,0.42,0.73,0
-290.04,-20.75,-144.78,0.88,0.49,0.78,0
-262.70,-3.72,-159.36,1.01,0.63,0.99,0
-219.12,8.79,-183.78,0.94,0.65,1.09,0
-158.75,26.98,-198.91,0.81,0.41,1.09,0
-114.38,61.22,-202.64,0.76,0.23,1.01,0
-92.41,101.07,-201.84,0.76,0.15,0.89,0
-85.33,138.06,-207.03,0.84,0.07,0.73,0
-89.05,165.83,-219.06,0.97,0.07,0.66,0
-96.25,178.28,-234.50,1.06,0.08,0.60,0
-98.88,183.04,-249.69,1.14,0.09,0.58,0
-97.84,182.68,-263.43,1.38,0.26,0.64,0
-81.60,157.04,-275.09,1.31,0.40,0.84,0
-29.91,114.32,-275.45,1.18,0.23,0.64,0
14.77,93.44,-270.39,1.12,-0.10,0.45,0
13.67,91.61,-271.61,1.15,-0.25,0.42,0
-4.52,92.04,-276.92,1.17,-0.24,0.42,0
-7.87,92.83,-285.83,1.17,-0.26,0.34,0
-4.21,95.64,-300.54,1.10,-0.27,0.35,0
-1.16,99.30,-319.27,0.99,-0.30,0.41,0
5.80,105.22,-335.51,0.94,-0.30,0.38,0
16.42,109.13,-339.48,0.92,-0.33,0.29,0
23.38,105.10,-333.19,0.90,-0.42,0.23,0
24.96,91.00,-323.97,0.80,-0.49,0.19,0
24.90,70.92,-314.51,0.69,-0.48,0.16,0
28.87,48.95,-302.73,0.59,-0.46,0.25,0
39.31,26.43,-281.07,0.47,-0.48,0.29,0
54.02,9.40,-244.63,0.45,-0.56,0.17,0
57.25,-1.04,-211.24,0.45,-0.63,0.14,0
51.09,-12.51,-186.28,0.46,-0.62,0.21,0
46.75,-23.62,-171.02,0.53,-0.61,0.19,0
40.65,-22.77,-173.03,0.43,-0.61,0.20,0
37.29,-13.12,-191.59,0.40,-0.61,0.32,0
41.14,-6.96,-207.15,0.34,-0.61,0.35,0
50.72,-5.80,-208.13,0.25,-0.64,0.28,0
60.91,-4.94,-196.78,0.21,-0.75,0.20,0
62.07,-5.31,-180.60,0.23,-0.85,0.18,0
49.80,-12.57,-161.38,0.19,-0.87,0.18,0
39.31,-21.36,-140.56,0.15,-0.83,0.16,0
34.85,-24.29,-120.06,0.11,-0.81,0.15,0
33.63,-23.56,-103.88,0.09,-0.77,0.17,0
36.01,-20.26,-92.96,0.05,-0.72,0.17,0
43.09,-6.71,-92.47,-0.04,-0.67,0.18,0
54.32,24.66,-100.34,-0.04,-0.64,0.24,0
70.98,69.15,-110.53,0.03,-0.60,0.29,0
91.67,114.26,-115.05,0.07,-0.60,0.28,0
115.66,151.06,-111.76,0.01,-0.60,0.21,0
138.12,181.21,-100.95,-0.05,-0.66,0.12,0
150.82,209.84,-86.91,-0.06,-0.76,0.01,0
145.51,233.09,-71.29,-0.16,-0.80,-0.16,0
130.92,252.99,-56.82,-0.21,-0.87,-0.23,0
110.84,275.33,-46.39,-0.13,-0.95,-0.20,0
84.90,289.92,-37.17,-0.07,-0.91,-0.16,0
69.34,291.99,-26.49,-0.08,-0.82,-0.11,0
71.29,284.67,-10.68,-0.06,-0.78,-0.10,0
86.18,274.11,6.04,-0.05,-0.77,-0.13,0
104.31,261.47,20.94,-0.09,-0.78,-0.18,0
120.12,246.77,32.41,-0.09,-0.78,-0.23,0
131.04,234.31,40.65,-0.09,-0.81,-0.29,0
137.57,224.98,48.16,-0.11,-0.85,-0.32,0
139.10,219.48,57.13,-0.06,-0.89,-0.28,0
135.38,214.42,63.05,-0.04,-0.95,-0.28,0
125.61,212.34,62.62,-0.12,-0.96,-0.38,0
112.98,218.02,60.61,-0.12,-0.93,-0.39,0
106.93,225.10,62.81,-0.09,-0.83,-0.39,0
115.05,231.51,62.38,-0.09,-0.87,-0.40,0
125.55,238.16,61.40,-0.15,-0.94,-0.40,0
134.58,246.77,67.50,-0.12,-0.95,-0.29,0
139.83,259.89,81.42,-0.12,-0.95,-0.24,0
140.26,273.68,93.26,-0.12,-0.97,-0.24,0
141.66,278.08,96.92,-0.11,-0.93,-0.29,0
148.25,273.13,93.02,-0.08,-0.84,-0.28,0
163.70,258.36,87.59,-0.06,-0.88,-0.39,0
175.54,239.50,79.04,0.00,-1.09,-0.57,0
170.23,224.67,57.68,0.05,-1.31,-0.70,0
143.86,216.19,30.27,0.09,-1.42,-0.69,0
107.24,212.52,5.37,0.09,-1.53,-0.69,0
75.87,213.62,-17.46,0.05,-1.40,-0.56,0
59.88,200.68,-24.66,0.00,-1.15,-0.48,0
74.46,185.91,-16.78,-0.03,-1.04,-0.37,0
107.73,175.66,-3.97,-0.05,-1.09,-0.37,0
132.20,166.26,2.32,-0.10,-1.12,-0.39,0
135.86,162.54,2.50,-0.09,-1.17,-0.45,0
123.17,162.78,-3.17,-0.08,-1.12,-0.43,0
94.67,157.65,-2.14,-0.09,-1.09,-0.48,0
72.33,149.90,3.85,-0.08,-1.02,-0.57,0
60.42,143.07,10.56,-0.07,-0.97,-0.58,0
60.61,137.45,13.92,-0.16,-0.87,-0.64,0
63.11,126.65,12.33,-0.21,-0.86,-0.82,0
72.63,124.02,11.17,-0.17,-0.91,-0.89,0
87.34,127.26,8.18,-0.06,-0.94,-0.82,0
89.97,124.33,7.63,-0.01,-0.87,-0.73,0
83.31,109.13,5.13,-0.01,-0.74,-0.73,0
83.31,89.66,2.14,-0.01,-0.68,-0.73,0
88.20,70.25,-3.30,-0.02,-0.67,-0.70,0
87.71,52.06,-11.72,-0.07,-0.61,-0.67,0
83.98,35.46,-19.78,-0.13,-0.56,-0.68,0
81.18,22.52,-26.43,-0.22,-0.53,-0.72,0
82.28,14.89,-30.46,-0.24,-0.51,-0.76,0
86.49,11.29,-32.29,-0.23,-0.50,-0.78,0
92.90,8.06,-32.35,-0.31,-0.50,-0.80,0
105.35,2.08,-30.52,-0.38,-0.51,-0.83,0
116.70,-3.36,-26.86,-0.44,-0.54,-0.87,0
122.25,-5.07,-24.05,-0.49,-0.54,-0.90,0
122.50,-4.33,-19.29,-0.52,-0.53,-0.92,0
119.51,-0.12,-15.38,-0.50,-0.53,-0.90,0
112.30,3.72,-15.81,-0.46,-0.49,-0.87,0
105.35,5.92,-16.66,-0.43,-0.47,-0.84,0
103.64,4.15,-21.61,-0.38,-0.42,-0.84,0
107.06,-0.92,-30.64,-0.32,-0.35,-0.86,0
116.27,-8.18,-44.49,-0.26,-0.32,-0.85,0
129.94,-19.71,-62.93,-0.24,-0.22,-0.86,0
149.17,-34.73,-85.45,-0.22,-0.07,-0.87,0
177.00,-49.50,-112.85,-0.24,-0.03,-0.90,0
207.03,-71.47,-134.03,-0.33,-0.10,-1.02,0
229.31,-89.05,-139.47,-0.37,-0.28,-1.08,0
233.40,-91.61,-150.21,-0.40,-0.26,-1.03,0
232.60,-88.50,-173.46,-0.44,-0.03,-1.00,0
237.30,-82.82,-199.83,-0.42,0.10,-0.95,0
246.09,-82.46,-225.71,-0.40,0.21,-0.99,0
258.06,-86.61,-253.48,-0.38,0.25,-1.04,0
263.79,-95.21,-283.26,-0.35,0.32,-1.16,0
261.72,-106.26,-302.25,-0.33,0.28,-1.24,0
257.32,-119.93,-313.96,-0.30,0.27,-1.25,0
247.07,-133.54,-320.43,-0.28,0.33,-1.24,0
235.29,-146.12,-323.30,-0.20,0.38,-1.23,0
222.66,-159.12,-330.26,-0.12,0.56,-1.15,0
213.13,-168.76,-351.32,-0.00,0.81,-1.05,0
217.10,-179.75,-376.34,0.11,0.99,-0.96,0
235.60,-194.64,-395.87,0.18,1.10,-0.86,0
264.10,-214.60,-406.13,0.13,1.04,-0.82,0
288.88,-228.27,-408.69,0.09,0.80,-0.84,0
291.26,-225.95,-404.48,0.09,0.59,-0.86,0
269.78,-208.80,-395.02,0.17,0.50,-0.84,0
236.27,-190.37,-381.84,0.32,0.46,-0.82,0
198.24,-178.83,-366.88,0.51,0.39,-0.86,0
158.08,-179.32,-356.93,0.73,0.30,-0.87,0
123.66,-194.03,-344.18,0.84,0.41,-0.77,0
100.34,-219.42,-339.29,0.89,0.46,-0.72,0
94.91,-250.49,-339.36,0.92,0.34,-0.69,0
89.84,-273.74,-334.23,0.92,0.25,-0.66,0
79.35,-293.58,-338.56,0.95,0.29,-0.57,0
76.60,-318.79,-350.95,0.89,0.29,-0.55,0
79.28,-348.57,-367.13,0.86,0.26,-0.48,0
73.97,-377.81,-376.16,0.77,0.23,-0.32,0
51.15,-402.28,-360.23,0.61,0.01,-0.42,0
13.12,-394.90,-338.68,0.29,-0.13,-0.35,0
-34.67,-352.17,-305.79,0.26,-0.26,-0.14,0
-102.84,-289.06,-256.84,0.50,-0.37,-0.03,0
-176.57,-232.18,-226.62,0.84,-0.14,0.01,0
-220.03,-208.80,-219.67,1.23,0.10,0.03,0
-228.52,-239.62,-223.21,1.37,0.23,-0.09,0
-207.34,-308.72,-228.70,1.18,0.29,-0.02,0
-185.61,-377.87,-222.35,0.79,0.15,0.05,0
-182.62,-405.09,-210.94,0.44,-0.12,0.03,0
-211.79,-385.86,-200.56,0.18,-0.15,0.08,0
-253.97,-333.44,-174.26,0.30,-0.06,0.24,0
-278.81,-276.25,-150.02,0.60,0.07,0.40,0
-287.96,-243.29,-162.84,0.71,0.47,0.53,0
-263.49,-235.05,-173.46,0.67,0.52,0.43,0
-228.27,-219.18,-162.11,0.74,0.10,0.58,0
-224.91,-200.87,-159.18,0.82,-0.04,0.38,0
-251.28,-186.16,-170.96,0.87,-0.12,0.29,0
-288.33,-182.56,-180.85,0.85,-0.09,0.39,0
-307.92,-185.91,-158.08,0.62,-0.07,0.44,0
-307.19,-181.46,-112.12,0.61,-0.07,0.52,0
-294.01,-173.16,-73.67,0.68,0.16,0.54,0
-273.68,-175.29,-56.82,0.55,0.18,0.62,0
-257.20,-171.69,-61.04,0.49,0.05,0.69,0
-260.62,-152.65,-70.19,0.45,-0.01,0.75,0
-276.92,-116.76,-71.66,0.35,-0.05,0.81,0
-293.64,-68.60,-66.41,0.41,0.04,0.80,0
-305.48,-19.29,-55.73,0.63,0.14,0.74,0
-307.74,10.99,-52.86,0.67,0.25,0.80,0
-294.13,11.17,-51.21,0.68,0.27,0.77,0
-272.71,2.81,-47.00,0.66,0.37,0.84,0
-241.94,-13.49,-40.53,0.70,0.59,0.97,0
-204.47,-39.55,-29.54,0.52,0.58,0.92,0
-159.85,-43.21,-26.49,0.33,0.44,0.90,0
-133.06,-22.64,-35.10,0.44,0.38,0.94,0
-119.93,-9.34,-35.71,0.48,0.36,0.92,0
-108.70,-6.96,-22.09,0.43,0.25,0.82,0
-99.67,-1.65,-11.96,0.43,0.16,0.73,0
-105.96,-1.46,-15.81,0.49,0.21,0.70,0
-110.29,-6.41,-22.28,0.47,0.24,0.69,0
-106.08,-8.36,-28.63,0.43,0.30,0.64,0
-99.24,-3.78,-34.73,0.45,0.33,0.56,0
-94.97,9.64,-40.28,0.54,0.35,0.54,0
-93.14,25.82,-42.30,0.62,0.34,0.62,0
-90.64,40.22,-47.06,0.68,0.30,0.68,0
-87.95,50.29,-51.03,0.71,0.25,0.68,0
-91.80,58.29,-52.00,0.75,0.21,0.71,0
-103.39,62.19,-56.21,0.76,0.20,0.69,0
-110.66,69.95,-60.18,0.72,0.30,0.70,0
-109.50,80.57,-52.67,0.77,0.45,0.71,0
-96.86,83.44,-34.97,0.79,0.50,0.68,0
-85.33,86.12,-22.58,0.80,0.45,0.73,0
-76.17,86.55,-21.00,0.94,0.58,0.81,0
-54.99,85.14,-35.95,1.09,0.68,0.74,0
-44.56,86.85,-68.36,1.14,0.57,0.53,0
-48.52,82.95,-113.77,1.08,0.47,0.49,0
-51.33,75.99,-162.60,1.01,0.48,0.56,0
-44.13,68.85,-203.37,0.91,0.50,0.64,0
-31.13,62.13,-217.22,0.64,0.49,0.71,0
-11.72,55.97,-179.14,0.46,0.52,0.78,0
30.58,66.04,-112.30,0.42,0.39,0.87,0
69.27,92.35,-32.23,0.51,0.31,1.00,0
84.47,122.62,30.21,0.40,0.36,1.01,0
96.37,166.20,62.50,0.45,0.49,0.95,0
122.44,219.60,77.64,0.64,0.53,0.71,0
144.17,259.58,80.20,0.74,0.44,0.39,0
136.41,275.51,67.44,0.86,0.32,0.04,0
101.32,263.06,32.65,1.11,0.28,-0.40,0
38.15,223.63,-25.09,1.05,0.02,-0.49,0
-34.48,176.51,-93.51,1.06,-0.05,-0.32,0
-77.09,139.34,-158.63,1.09,0.29,0.10,0
-84.23,118.47,-192.20,1.05,0.54,0.40,0
-62.07,111.82,-196.17,0.93,0.53,0.52,0
-27.16,120.36,-183.78,0.81,0.38,0.51,0
1.53,140.75,-161.32,0.75,0.23,0.46,0
18.49,169.37,-132.93,0.75,0.11,0.41,0
26.43,199.10,-102.91,0.77,0.06,0.37,0
29.66,220.52,-75.56,0.78,0.04,0.26,0
29.66,228.88,-54.87,0.95,0.10,0.05,0
27.40,215.39,-38.33,1.08,0.13,-0.08,0
31.37,181.64,-21.18,1.10,0.14,-0.07,0
44.56,134.58,-1.53,1.16,0.14,-0.10,0
74.28,88.44,17.58,1.18,0.15,-0.08,0
107.54,52.80,31.37,1.13,0.12,-0.05,0
132.02,28.56,36.87,1.07,0.10,-0.04,0
148.13,16.05,35.77,1.00,0.07,-0.04,0
156.86,12.82,32.23,0.95,0.04,-0.05,0
159.85,17.94,28.14,0.89,0.02,-0.07,0
159.06,28.26,23.68,0.82,0.00,-0.09,0
155.88,42.54,18.80,0.78,0.00,-0.14,0
150.76,60.91,14.89,0.73,0.00,-0.23,0
146.12,86.12,13.18,0.64,0.02,-0.37,0
142.46,122.25,15.20,0.63,0.05,-0.43,0
139.34,163.57,18.55,0.65,0.05,-0.45,0
135.80,198.49,19.29,0.70,0.09,-0.45,0
135.38,222.17,18.62,0.76,0.15,-0.43,0
134.40,234.92,20.08,0.81,0.15,-0.46,0
134.89,240.48,20.20,0.86,0.17,-0.41,0
133.48,238.83,20.08,0.90,0.17,-0.38,0
126.28,225.77,25.02,0.95,0.13,-0.37,0
115.05,203.86,29.60,1.00,0.10,-0.37,0
90.64,170.96,32.96,1.03,0.05,-0.46,0
60.61,135.68,34.42,1.01,0.09,-0.54,0
39.12,103.03,33.08,1.01,0.07,-0.57,0
13.67,86.18,40.59,0.98,0.06,-0.61,0
-9.28,82.28,55.91,0.96,0.18,-0.65,0
-18.07,81.79,70.62,0.77,0.25,-0.69,0
-8.61,63.66,63.72,0.76,0.30,-0.62,0
-7.69,58.23,49.93,0.77,0.30,-0.56,0
-10.80,62.50,36.62,0.79,0.24,-0.52,0
-21.36,68.18,23.86,0.81,0.18,-0.47,0
-41.14,72.33,10.13,0.83,0.14,-0.43,0
-64.39,74.22,0.31,0.84,0.12,-0.43,0
-87.46,75.44,-3.11,0.83,0.14,-0.44,0
-107.91,75.50,-0.43,0.84,0.21,-0.46,0
-120.30,75.20,9.83,0.82,0.27,-0.49,0
-124.33,73.85,23.19,0.78,0.27,-0.53,0
-122.44,71.96,34.36,0.78,0.29,-0.55,0
-115.54,67.75,41.26,0.74,0.27,-0.61,0
-109.92,64.09,41.08,0.78,0.29,-0.76,0
-101.26,51.94,33.14,0.96,0.30,-0.99,0
-91.98,29.36,16.17,1.15,0.24,-1.18,0
-70.37,-6.90,-8.79,1.28,0.17,-1.20,0
-34.97,-54.81,-37.60,1.25,0.16,-1.01,0
-3.42,-100.22,-58.90,1.09,0.18,-0.81,0
14.16,-131.04,-67.99,0.76,0.08,-0.58,0
-7.93,-119.81,-61.10,0.66,0.07,-0.43,0
-26.92,-94.12,-42.24,0.83,0.18,-0.52,0
5.25,-109.44,-32.96,0.74,0.25,-0.49,0
22.58,-121.89,-22.83,0.68,0.26,-0.51,0
29.42,-119.14,-14.16,0.75,0.30,-0.53,0
31.80,-105.65,-6.35,0.82,0.31,-0.61,0
40.34,-96.37,-11.23,0.92,0.26,-0.70,0
36.87,-90.64,-35.22,1.04,0.19,-0.77,0
25.45,-91.67,-68.79,1.22,0.17,-0.87,0
17.58,-105.29,-98.02,1.30,0.11,-0.78,0
6.41,-122.99,-110.35,1.19,0.04,-0.56,0
-17.33,-136.35,-109.44,1.02,0.10,-0.36,0
-31.92,-146.12,-98.82,0.95,0.24,-0.36,0
-41.50,-149.90,-68.66,0.90,0.34,-0.35,0
-37.35,-146.48,-38.94,0.85,0.34,-0.36,0
-24.54,-136.78,-16.78,0.80,0.31,-0.35,0
-10.19,-120.42,-2.81,0.76,0.28,-0.32,0
1.10,-95.83,5.62,0.75,0.22,-0.26,0
3.60,-66.59,10.19,0.76,0.15,-0.18,0
-0.79,-38.15,7.93,0.77,0.10,-0.12,0
-9.77,-13.49,-3.60,0.79,0.08,-0.06,0
-20.08,7.26,-24.96,0.83,0.10,-0.03,0
-29.97,25.15,-48.40,0.90,0.14,-0.05,0
-38.51,38.02,-66.53,0.95,0.19,-0.07,0
-43.52,44.74,-77.51,0.94,0.21,-0.08,0
-42.97,45.59,-81.79,0.92,0.21,-0.09,0
-36.13,44.07,-81.73,0.91,0.20,-0.08,0
-25.82,42.48,-78.80,0.89,0.15,-0.06,0
-14.22,41.69,-75.93,0.87,0.07,-0.05,0
-4.76,41.69,-74.16,0.83,0.02,-0.05,0
3.11,44.49,-73.06,0.79,-0.01,-0.07,0
9.22,52.25,-72.02,0.75,-0.05,-0.09,0
13.61,64.58,-71.66,0.73,-0.10,-0.11,0
16.66,78.31,-73.12,0.71,-0.15,-0.12,0
16.66,90.76,-77.03,0.71,-0.17,-0.14,0
13.31,100.95,-82.64,0.72,-0.17,-0.19,0
9.40,109.19,-89.29,0.75,-0.17,-0.21,0
7.87,114.56,-96.50,0.78,-0.16,-0.22,0
5.49,115.72,-101.14,0.82,-0.11,-0.27,0
4.15,112.00,-102.42,0.88,-0.05,-0.30,0
9.09,102.91,-101.26,0.88,-0.02,-0.32,0
20.69,88.44,-96.86,0.89,-0.01,-0.33,0
35.83,69.76,-89.17,0.87,-0.02,-0.41,0
54.57,51.27,-83.19,0.87,-0.05,-0.52,0
70.98,40.22,-80.38,0.88,-0.08,-0.55,0
81.12,35.46,-82.15,0.88,-0.12,-0.54,0
83.50,31.07,-87.83,0.86,-0.14,-0.55,0
79.53,28.20,-93.44,0.83,-0.15,-0.56,0
72.08,31.07,-99.73,0.83,-0.13,-0.62,0
62.74,36.07,-106.69,0.89,-0.11,-0.72,0
58.47,37.29,-115.17,0.93,-0.12,-0.76,0
59.81,33.51,-122.38,0.93,-0.16,-0.75,0
60.24,23.38,-127.62,0.88,-0.19,-0.74,0
62.74,8.73,-130.19,0.83,-0.23,-0.73,0
67.02,-5.31,-128.36,0.76,-0.25,-0.75,0
71.47,-14.65,-121.64,0.70,-0.29,-0.78,0
74.40,-17.46,-112.79,0.65,-0.35,-0.79,0
76.90,-15.99,-106.75,0.62,-0.40,-0.78,0
77.15,-12.76,-105.90,0.58,-0.41,-0.79,0
75.50,-10.25,-106.87,0.57,-0.43,-0.82,0
72.69,-8.36,-107.60,0.56,-0.46,-0.82,0
68.79,-7.81,-107.48,0.53,-0.50,-0.81,0
63.78,-9.22,-105.90,0.50,-0.53,-0.81,0
58.78,-12.51,-102.97,0.46,-0.56,-0.80,0
53.59,-15.50,-98.51,0.43,-0.59,-0.79,0
48.28,-18.49,-92.16,0.42,-0.58,-0.78,0
44.37,-24.35,-83.25,0.42,-0.58,-0.81,0
42.79,-33.87,-72.63,0.40,-0.63,-0.83,0
42.48,-45.04,-62.19,0.37,-0.67,-0.82,0
40.83,-54.26,-55.54,0.34,-0.69,-0.81,0
42.05,-59.39,-51.94,0.29,-0.71,-0.82,0
39.73,-59.75,-45.47,0.26,-0.71,-0.81,0
34.85,-57.07,-39.67,0.23,-0.72,-0.78,0
29.05,-51.03,-34.12,0.19,-0.74,-0.78,0
23.13,-39.25,-29.85,0.18,-0.77,-0.74,0
14.83,-30.27,-23.07,0.17,-0.79,-0.75,0
5.07,-18.13,-14.71,0.17,-0.77,-0.78,0
-3.23,-2.50,-4.27,0.18,-0.77,-0.76,0
-10.25,10.44,6.41,0.20,-0.77,-0.73,0
-17.64,18.62,17.70,0.25,-0.77,-0.72,0
-26.06,21.73,28.26,0.30,-0.76,-0.72,0
-34.00,21.18,35.71,0.32,-0.75,-0.71,0
-40.22,18.37,39.86,0.32,-0.72,-0.69,0
-45.53,14.47,41.02,0.32,-0.68,-0.66,0
-48.77,10.38,42.72,0.31,-0.63,-0.65,0
-50.72,7.51,48.28,0.31,-0.60,-0.65,0
-51.57,5.92,55.60,0.31,-0.59,-0.66,0
-51.94,4.76,63.96,0.33,-0.60,-0.69,0
-52.31,3.60,71.47,0.35,-0.62,-0.69,0
-54.38,2.44,76.29,0.34,-0.64,-0.68,0
-58.41,1.34,80.87,0.35,-0.64,-0.67,0
-66.35,0.73,88.81,0.35,-0.60,-0.65,0
-73.97,0.79,99.12,0.36,-0.56,-0.63,0
-80.57,1.28,110.96,0.36,-0.54,-0.62,0
-87.77,2.50,120.91,0.36,-0.51,-0.60,0
-96.98,6.10,124.63,0.35,-0.49,-0.58,0
-108.46,12.76,121.70,0.33,-0.46,-0.57,0
-119.14,22.89,116.88,0.33,-0.46,-0.59,0
-130.98,37.84,112.67,0.35,-0.44,-0.58,0
-144.65,53.65,111.88,0.36,-0.43,-0.57,0
-159.91,64.51,119.26,0.42,-0.40,-0.57,0
-172.00,68.85,131.53,0.47,-0.31,-0.56,0
-176.45,67.50,147.83,0.49,-0.19,-0.56,0
-171.81,65.06,167.79,0.51,-0.09,-0.53,0
-158.39,59.20,189.88,0.54,-0.02,-0.50,0
-141.11,48.03,208.25,0.54,0.03,-0.47,0
-118.29,33.94,219.91,0.56,0.09,-0.46,0
-93.75,20.08,226.32,0.62,0.15,-0.47,0
-69.76,7.32,228.58,0.71,0.23,-0.43,0
-41.02,-8.48,236.51,0.78,0.28,-0.36,0
-9.58,-39.00,261.72,0.82,0.32,-0.26,0
27.53,-85.39,301.03,0.83,0.31,-0.32,0
50.29,-139.34,340.45,0.75,0.33,-0.41,0
54.63,-176.21,377.87,0.68,0.38,-0.50,0
37.41,-220.03,410.64,0.98,0.31,-0.39,0
-14.34,-262.02,424.26,0.48,0.28,-0.94,0
-62.68,-188.48,395.75,0.84,0.74,-0.87,0
-110.72,-132.26,350.52,0.83,0.93,-0.79,0
-143.31,-67.38,289.67,1.00,1.16,-0.62,0
-142.21,-9.83,222.23,1.31,1.48,-0.52,0
-118.77,26.98,168.21,1.66,1.66,-0.35,0
-70.62,33.39,141.05,1.83,1.67,-0.36,0
-8.67,14.71,130.86,1.96,1.53,-0.43,0
53.83,-24.60,128.36,1.93,1.26,-0.49,0
107.73,-72.20,121.77,1.76,0.94,-0.66,0
131.10,-113.89,106.99,1.50,0.69,-0.75,0
130.68,-132.75,87.10,1.27,0.53,-0.67,0
107.12,-134.58,66.65,1.10,0.37,-0.49,0
67.32,-129.82,42.60,0.94,0.28,-0.31,0
23.86,-117.98,18.19,0.80,0.32,-0.14,0
-13.00,-103.94,0.31,0.75,0.39,0.04,0
-32.84,-96.62,-12.51,0.67,0.44,0.16,0
-42.18,-93.51,-21.12,0.59,0.49,0.18,0
-37.90,-81.30,-23.93,0.55,0.54,0.17,0
-25.33,-66.28,-21.00,0.53,0.51,0.16,0
-10.68,-51.76,-14.22,0.56,0.44,0.17,0
1.46,-41.38,-7.93,0.62,0.36,0.13,0
6.10,-36.56,-6.04,0.68,0.31,0.08,0
5.00,-32.23,-6.10,0.74,0.28,0.01,0
-1.10,-28.81,-7.26,0.79,0.26,-0.04,0
-10.74,-26.67,-9.77,0.83,0.23,-0.10,0
-22.16,-25.09,-12.33,0.85,0.22,-0.10,0
-31.19,-22.58,-13.61,0.87,0.26,-0.07,0
-35.03,-18.68,-10.86,0.89,0.33,-0.04,0
-32.84,-16.11,-0.06,0.92,0.41,-0.04,0
-21.42,-15.44,16.97,0.94,0.46,-0.04,0
-4.88,-16.60,36.07,0.96,0.50,-0.07,0
12.39,-19.23,53.28,1.00,0.51,-0.13,0
26.61,-21.73,64.33,1.03,0.54,-0.22,0
33.94,-26.37,68.73,1.06,0.52,-0.30,0
35.03,-34.42,64.76,1.15,0.49,-0.35,0
25.88,-53.71,55.79,1.18,0.41,-0.33,0
14.34,-79.28,41.14,1.11,0.38,-0.22,0
3.78,-99.79,26.25,1.01,0.47,-0.13,0
-2.69,-109.62,20.26,0.96,0.59,-0.07,0
2.14,-111.27,26.37,0.92,0.66,-0.03,0
17.64,-110.90,40.22,0.89,0.67,-0.00,0
34.30,-111.02,54.75,0.87,0.65,-0.00,0
46.26,-110.84,64.70,0.86,0.60,0.00,0
52.73,-109.99,65.12,0.83,0.56,-0.02,0
51.76,-107.06,55.66,0.82,0.54,-0.00,0
42.97,-103.70,40.53,0.82,0.52,-0.01,0
30.27,-100.28,20.69,0.85,0.55,0.03,0
19.29,-99.79,-3.60,0.90,0.60,0.07,0
15.50,-106.32,-25.88,0.92,0.65,0.11,0
19.10,-118.90,-39.06,0.88,0.66,0.18,0
30.82,-131.29,-41.20,0.79,0.65,0.25,0
43.88,-136.78,-31.43,0.75,0.62,0.28,0
55.85,-132.20,-10.80,0.70,0.56,0.24,0
65.80,-117.37,11.41,0.75,0.49,0.20,0
67.87,-97.78,26.79,0.85,0.45,0.17,0
56.76,-84.90,31.43,0.96,0.44,0.16,0
40.95,-83.37,22.34,1.00,0.45,0.19,0
29.36,-89.66,2.01,1.00,0.51,0.24,0
21.61,-98.82,-21.48,1.04,0.56,0.20,0
16.91,-110.11,-42.18,1.02,0.57,0.27,0
18.86,-119.69,-56.09,0.95,0.57,0.33,0
25.70,-122.38,-61.28,0.92,0.58,0.40,0
35.89,-117.13,-55.11,0.95,0.57,0.43,0
47.24,-109.31,-38.76,0.92,0.51,0.43,0
55.73,-101.81,-23.62,0.92,0.46,0.42,0
54.57,-94.30,-13.43,0.90,0.43,0.43,0
49.50,-86.06,-10.25,0.90,0.44,0.44,0
43.09,-76.42,-13.79,0.94,0.45,0.40,0
35.34,-68.30,-24.35,0.98,0.45,0.39,0
27.59,-63.72,-40.04,0.99,0.45,0.39,0
19.17,-61.83,-58.59,0.98,0.44,0.37,0
9.95,-61.16,-77.15,1.00,0.43,0.33,0
0.49,-62.26,-93.38,1.00,0.43,0.35,0
-5.13,-64.39,-104.74,0.97,0.43,0.38,0
-6.53,-66.83,-110.66,0.95,0.42,0.40,0
-4.15,-68.54,-111.02,0.93,0.40,0.42,0
0.31,-70.74,-106.87,0.90,0.35,0.44,0
4.64,-74.40,-101.38,0.86,0.29,0.45,0
6.53,-77.51,-96.50,0.82,0.23,0.44,0
4.46,-78.00,-93.14,0.79,0.19,0.41,0
-0.85,-75.74,-90.94,0.76,0.15,0.42,0
-7.26,-71.47,-90.09,0.73,0.13,0.41,0
-15.08,-65.31,-90.45,0.73,0.10,0.38,0
-24.60,-58.59,-91.98,0.74,0.08,0.37,0
-34.00,-51.33,-94.36,0.75,0.08,0.37,0
-42.66,-45.90,-97.66,0.77,0.10,0.37,0
-48.71,-44.62,-100.46,0.79,0.12,0.35,0
-51.88,-47.24,-100.71,0.79,0.13,0.34,0
-53.65,-52.12,-99.55,0.77,0.14,0.35,0
-56.27,-59.69,-98.21,0.74,0.14,0.33,0
-61.46,-70.19,-96.56,0.70,0.15,0.32,0
-66.96,-82.95,-93.08,0.62,0.16,0.34,0
-71.59,-94.48,-88.01,0.56,0.18,0.36,0
-73.97,-99.91,-82.21,0.53,0.20,0.39,0
-74.34,-99.91,-76.29,0.50,0.22,0.43,0
-76.29,-97.41,-70.50,0.49,0.23,0.46,0
-79.04,-94.06,-65.19,0.48,0.25,0.50,0
-81.12,-92.04,-62.44,0.47,0.28,0.51,0
-83.37,-92.10,-62.93,0.47,0.31,0.50,0
-84.66,-94.24,-63.72,0.43,0.34,0.52,0
-85.08,-98.02,-63.66,0.40,0.37,0.52,0
-86.85,-100.65,-61.04,0.40,0.41,0.51,0
-85.94,-101.81,-55.79,0.35,0.43,0.45,0
-81.18,-103.09,-51.21,0.42,0.41,0.58,0
-76.17,-108.40,-50.48,0.35,0.36,0.50,0
-73.06,-99.18,-55.36,0.33,0.37,0.64,0
-74.77,-104.25,-55.05,0.28,0.34,0.69,0
-78.98,-109.86,-53.96,0.24,0.35,0.76,0
-79.16,-116.15,-49.93,0.16,0.36,0.84,0
-76.17,-118.65,-42.30,0.08,0.38,0.90,0
-71.90,-115.97,-30.76,0.03,0.42,0.98,0
-68.91,-111.02,-17.46,-0.00,0.46,1.02,0
-66.89,-103.52,-5.98,-0.01,0.50,1.05,0
-66.65,-94.60,2.20,-0.02,0.55,1.07,0
-70.19,-80.81,3.42,0.01,0.62,1.09,0
-73.55,-61.46,-2.87,0.03,0.70,1.11,0
-74.89,-41.63,-13.49,0.06,0.79,1.11,0
-69.27,-27.34,-26.25,0.08,0.90,1.14,0
-54.57,-23.07,-35.40,0.09,0.96,1.16,0
-36.62,-27.65,-37.05,0.05,0.96,1.18,0
-18.01,-35.58,-35.22,0.01,0.89,1.20,0
-1.28,-40.22,-33.75,-0.06,0.80,1.23,0
9.58,-38.88,-32.65,-0.12,0.74,1.25,0
15.44,-32.41,-31.43,-0.17,0.71,1.26,0
21.55,-20.20,-29.11,-0.14,0.69,1.27,0
28.99,-3.72,-25.76,-0.10,0.64,1.29,0
34.79,12.39,-21.97,-0.06,0.62,1.30,0
37.29,24.35,-17.70,-0.04,0.64,1.27,0
39.98,34.48,-10.93,-0.02,0.68,1.22,0
48.22,46.39,-3.66,0.00,0.68,1.19,0
57.74,59.45,1.95,0.03,0.68,1.17,0
64.82,71.78,2.81,0.06,0.68,1.14,0
71.35,82.89,-1.28,0.08,0.67,1.11,0
80.20,94.91,-7.75,0.12,0.65,1.10,0
91.49,106.08,-15.99,0.16,0.60,1.11,0
96.37,114.32,-24.35,0.20,0.56,1.10,0
96.19,118.29,-31.19,0.23,0.58,1.05,0
97.41,123.17,-33.26,0.26,0.58,1.02,0
104.13,133.06,-32.29,0.32,0.54,0.99,0
112.92,144.23,-31.49,0.37,0.49,0.96,0
121.34,152.34,-31.62,0.40,0.45,0.91,0
129.09,158.33,-32.53,0.43,0.40,0.85,0
137.02,163.21,-34.61,0.46,0.34,0.81,0
142.52,164.73,-36.56,0.48,0.31,0.77,0
146.36,161.93,-36.80,0.47,0.30,0.71,0
153.81,157.10,-34.97,0.46,0.30,0.65,0
167.11,154.24,-32.04,0.47,0.28,0.59,0
181.34,155.88,-27.04,0.51,0.21,0.55,0
190.31,160.95,-22.09,0.55,0.12,0.52,0
193.66,168.40,-21.12,0.57,0.04,0.49,0
192.02,175.84,-24.60,0.59,-0.04,0.46,0
185.85,182.98,-31.49,0.58,-0.09,0.41,0
176.09,189.15,-40.04,0.58,-0.13,0.36,0
165.28,193.85,-48.10,0.58,-0.11,0.33,0
156.98,192.57,-51.33,0.58,-0.10,0.31,0
155.33,185.55,-50.23,0.57,-0.12,0.30,0
158.02,175.17,-47.18,0.57,-0.16,0.28,0
160.89,165.34,-41.93,0.56,-0.20,0.27,0
161.19,156.92,-36.07,0.54,-0.23,0.25,0
159.12,149.78,-30.46,0.52,-0.26,0.23,0
156.19,145.39,-25.76,0.51,-0.28,0.19,0
153.08,146.18,-21.00,0.51,-0.32,0.12,0
150.21,154.48,-18.37,0.52,-0.35,0.06,0
146.73,167.42,-18.01,0.53,-0.38,0.03,0
140.56,181.03,-18.31,0.52,-0.39,-0.03,0
136.96,196.17,-19.84,0.55,-0.39,-0.10,0
135.93,209.29,-22.34,0.60,-0.41,-0.19,0
132.45,216.61,-27.40,0.71,-0.46,-0.28,0
124.88,213.56,-37.78,0.79,-0.54,-0.32,0
114.75,198.61,-53.16,0.83,-0.63,-0.34,0
102.97,172.30,-69.58,0.81,-0.63,-0.30,0
93.20,139.47,-80.99,0.77,-0.61,-0.25,0
86.73,106.14,-79.96,0.71,-0.57,-0.24,0
83.19,77.51,-65.73,0.63,-0.53,-0.26,0
84.29,57.92,-42.54,0.57,-0.52,-0.33,0
88.50,51.15,-16.48,0.54,-0.53,-0.42,0
92.47,57.01,5.68,0.53,-0.57,-0.48,0
92.83,70.07,21.24,0.57,-0.59,-0.50,0
88.07,82.70,31.31,0.66,-0.60,-0.49,0
79.59,88.01,39.00,0.73,-0.59,-0.46,0
69.70,83.62,46.02,0.79,-0.57,-0.43,0
59.94,71.96,52.55,0.83,-0.52,-0.41,0
52.25,54.81,58.23,0.85,-0.48,-0.37,0
47.30,32.10,63.11,0.84,-0.43,-0.32,0
45.41,6.04,68.36,0.81,-0.37,-0.26,0
44.31,-19.59,76.54,0.75,-0.28,-0.24,0
45.47,-38.64,88.50,0.69,-0.20,-0.27,0
52.06,-43.40,100.59,0.66,-0.15,-0.34,0
62.38,-33.45,107.48,0.68,-0.15,-0.39,0
70.74,-15.32,106.63,0.72,-0.18,-0.41,0
74.34,3.42,99.18,0.77,-0.21,-0.43,0
72.57,19.17,87.95,0.81,-0.24,-0.46,0
66.35,30.03,76.17,0.85,-0.25,-0.47,0
58.41,32.53,66.41,0.88,-0.26,-0.46,0
50.66,25.15,60.30,0.89,-0.24,-0.41,0
43.82,10.13,60.67,0.88,-0.20,-0.37,0
37.72,-7.57,70.07,0.84,-0.15,-0.36,0
31.98,-21.18,86.24,0.82,-0.10,-0.41,0
27.71,-23.38,103.27,0.81,-0.08,-0.47,0
22.95,-15.44,113.40,0.83,-0.07,-0.49,0
15.08,-3.91,116.03,0.87,-0.06,-0.51,0
3.54,8.97,113.71,0.90,-0.02,-0.54,0
-8.06,22.40,108.46,0.91,-0.00,-0.54,0
-19.47,34.55,101.44,0.94,0.03,-0.52,0
-30.70,43.82,95.15,0.73,0.22,-0.70,0
-35.89,64.70,93.63,0.97,0.24,-0.49,0
-37.23,72.33,97.53,0.98,0.26,-0.43,0
-40.16,72.08,105.90,1.03,0.32,-0.37,0
-39.43,69.03,116.03,1.03,0.36,-0.37,0
-35.95,70.56,124.51,1.00,0.43,-0.42,0
-30.03,80.81,128.72,1.02,0.43,-0.43,0
-25.33,90.15,125.85,1.11,0.48,-0.45,0
-22.89,90.82,119.75,1.20,0.53,-0.55,0
-19.53,84.78,108.09,1.29,0.55,-0.64,0
-16.85,72.02,91.31,1.34,0.55,-0.67,0
-15.38,53.77,71.59,1.35,0.53,-0.67,0
-12.02,34.12,52.06,1.29,0.51,-0.69,0
-10.19,21.91,35.58,1.21,0.48,-0.64,0
-12.39,17.21,23.25,1.13,0.45,-0.59,0
-15.99,18.55,14.04,1.09,0.43,-0.55,0
-18.68,22.58,7.14,1.06,0.41,-0.52,0
-18.80,27.83,0.24,1.07,0.39,-0.50,0
-16.72,32.53,-6.71,1.07,0.36,-0.49,0
-14.28,36.01,-13.61,1.06,0.35,-0.48,0
-10.86,39.00,-20.20,1.05,0.32,-0.49,0
-6.53,40.95,-27.71,1.04,0.26,-0.49,0
-4.03,41.38,-36.68,0.89,0.21,-0.48,0
-7.45,43.88,-44.31,1.04,0.27,-0.54,0
-5.86,48.83,-43.15,0.95,0.23,-0.55,0
0.67,53.53,-36.87,0.89,0.17,-0.49,0
3.05,54.81,-35.77,0.89,0.15,-0.49,0
3.17,55.73,-35.10,0.88,0.15,-0.48,0
5.07,57.07,-34.06,0.86,0.16,-0.48,0
7.20,58.65,-31.92,0.85,0.16,-0.49,0
7.69,60.55,-29.72,0.85,0.17,-0.50,0
8.97,65.49,-27.77,0.78,0.12,-0.53,0
4.82,72.63,-30.76,0.85,0.13,-0.46,0
0.12,78.25,-35.89,0.85,0.13,-0.47,0
-4.64,84.90,-39.43,0.82,0.13,-0.44,0
-4.33,93.26,-45.10,0.81,0.14,-0.47,0
-5.43,99.00,-50.78,0.81,0.17,-0.49,0
-4.70,103.39,-56.40,0.81,0.18,-0.52,0
-1.40,107.54,-60.55,0.83,0.17,-0.57,0
1.65,108.40,-64.33,0.81,0.14,-0.61,0
4.70,106.08,-69.34,0.85,0.08,-0.67,0
5.37,100.28,-75.38,0.86,0.04,-0.69,0
4.15,93.32,-79.10,0.82,-0.00,-0.70,0
0.92,86.36,-81.36,0.76,-0.03,-0.71,0
-2.01,80.75,-81.67,0.71,-0.05,-0.72,0
-4.64,77.94,-78.98,0.67,-0.06,-0.74,0
-7.39,77.09,-74.89,0.65,-0.06,-0.77,0
-9.09,76.35,-70.62,0.67,-0.07,-0.78,0
-10.44,74.34,-66.35,0.69,-0.06,-0.80,0
-10.01,69.46,-61.40,0.72,-0.03,-0.84,0
-6.16,61.46,-55.60,0.74,-0.03,-0.87,0
0.31,50.05,-51.45,0.75,-0.06,-0.86,0
7.69,36.74,-48.10,0.77,-0.09,-0.87,0
15.44,23.44,-43.70,0.77,-0.11,-0.87,0
18.86,11.11,-37.72,0.73,-0.13,-0.85,0
17.40,0.31,-31.13,0.72,-0.12,-0.86,0
15.63,-7.20,-23.44,0.71,-0.09,-0.85,0
15.69,-11.78,-15.26,0.74,-0.10,-0.82,0
16.97,-16.36,-9.40,0.78,-0.10,-0.79,0
16.78,-21.00,-4.70,0.78,-0.06,-0.77,0
15.69,-25.88,-1.89,0.78,-0.03,-0.75,0
18.07,-26.86,-2.93,0.77,-0.03,-0.74,0
20.63,-24.60,-5.68,0.77,-0.05,-0.74,0
18.92,-21.73,-9.77,0.80,-0.09,-0.76,0
12.70,-19.04,-16.30,0.81,-0.10,-0.76,0
6.16,-17.58,-25.21,0.80,-0.09,-0.76,0
3.85,-16.48,-32.29,0.78,-0.07,-0.76,0
8.48,-11.78,-36.50,0.79,-0.05,-0.75,0
16.60,-7.81,-38.57,0.80,-0.06,-0.74,0
25.33,-9.70,-37.78,0.81,-0.07,-0.73,0
32.59,-15.08,-34.61,0.80,-0.12,-0.75,0
37.23,-19.59,-32.71,0.78,-0.15,-0.76,0
37.17,-22.03,-32.17,0.75,-0.16,-0.77,0
36.01,-22.64,-31.49,0.73,-0.16,-0.76,0
34.48,-20.81,-31.37,0.73,-0.16,-0.73,0
30.70,-19.04,-31.01,0.73,-0.15,-0.70,0
25.88,-18.07,-30.88,0.73,-0.12,-0.66,0
21.85,-18.13,-30.33,0.73,-0.07,-0.65,0
19.59,-18.68,-27.89,0.72,0.00,-0.65,0
19.71,-18.74,-23.93,0.74,0.04,-0.62,0
21.85,-20.51,-20.69,0.75,0.06,-0.58,0
24.05,-24.05,-18.55,0.74,0.08,-0.57,0
24.66,-26.61,-17.09,0.72,0.11,-0.58,0
25.15,-24.84,-17.46,0.70,0.13,-0.58,0
27.22,-18.62,-20.08,0.69,0.13,-0.56,0
28.32,-10.25,-24.72,0.71,0.14,-0.59,0
28.50,-1.46,-31.86,0.76,0.15,-0.62,0
30.21,6.59,-40.95,0.79,0.16,-0.67,0
34.36,11.05,-49.74,0.81,0.15,-0.77,0
39.67,11.72,-56.21,0.75,0.03,-0.90,0
42.85,17.40,-67.93,0.86,0.07,-0.90,0
39.06,15.01,-75.56,0.84,-0.02,-1.01,0
30.58,11.60,-76.60,0.80,-0.04,-1.09,0
20.87,11.90,-78.37,0.82,-0.13,-1.16,0
4.33,8.91,-79.53,0.88,-0.20,-1.21,0
-17.21,1.28,-79.41,0.92,-0.21,-1.23,0
-37.66,-10.86,-77.64,0.91,-0.17,-1.22,0
-50.05,-24.54,-73.73,0.87,-0.12,-1.19,0
-56.27,-36.56,-68.05,0.84,-0.09,-1.14,0
-59.81,-47.36,-62.68,0.81,-0.05,-1.08,0
-59.45,-55.18,-59.02,0.77,-0.02,-1.02,0
-56.95,-61.10,-58.35,0.76,-0.02,-0.98,0
-56.09,-66.41,-60.85,0.73,-0.02,-0.95,0
-55.30,-69.34,-66.65,0.70,-0.01,-0.92,0
-53.47,-71.41,-73.00,0.64,-0.03,-0.91,0
-50.90,-70.13,-78.61,0.58,-0.06,-0.90,0
-51.03,-67.93,-82.15,0.46,-0.07,-0.82,0
-55.24,-71.41,-81.67,0.36,-0.07,-0.65,0
-57.43,-79.22,-72.63,0.40,-0.15,-0.62,0
-52.31,-67.32,-58.35,0.45,-0.25,-0.70,0
-54.75,-41.87,-55.42,0.44,-0.32,-0.66,0
-63.11,-23.99,-63.23,0.47,-0.35,-0.68,0
-66.22,-11.66,-72.14,0.54,-0.41,-0.68,0
-67.32,-3.36,-80.20,0.56,-0.45,-0.65,0
-69.09,-3.30,-84.53,0.58,-0.43,-0.65,0
-65.00,-9.64,-82.09,0.56,-0.42,-0.63,0
-54.81,-21.42,-73.73,0.55,-0.44,-0.59,0
-43.76,-39.61,-63.66,0.53,-0.46,-0.53,0
-34.79,-63.84,-52.43,0.49,-0.48,-0.47,0
-26.86,-88.56,-40.59,0.42,-0.52,-0.42,0
-22.09,-109.92,-31.56,0.34,-0.53,-0.38,0
-20.51,-121.70,-24.54,0.27,-0.53,-0.35,0
-19.84,-124.08,-19.59,0.23,-0.54,-0.31,0
-20.81,-119.20,-16.72,0.23,-0.56,-0.26,0
-23.99,-108.46,-14.95,0.21,-0.58,-0.22,0
-29.48,-96.37,-14.10,0.20,-0.61,-0.18,0
-36.01,-84.84,-14.65,0.20,-0.62,-0.13,0
-40.71,-75.81,-14.16,0.20,-0.62,-0.08,0
-43.52,-69.34,-10.86,0.18,-0.62,-0.07,0
-42.66,-63.42,-4.09,0.17,-0.65,-0.04,0
-40.53,-57.80,3.42,0.19,-0.69,-0.04,0
-37.72,-50.78,12.45,0.21,-0.72,-0.07,0
-32.90,-41.14,21.36,0.23,-0.79,-0.08,0
-26.55,-31.80,26.79,0.31,-0.89,-0.06,0
-19.41,-27.10,28.38,0.45,-0.97,-0.04,0
-9.89,-30.88,27.53,0.52,-1.02,0.01,0
-5.19,-39.37,30.88,0.48,-0.99,0.01,0
-11.84,-46.75,41.56,0.38,-0.92,-0.05,0
-20.87,-47.55,54.87,0.36,-0.85,-0.09,0
-27.34,-44.31,68.30,0.36,-0.79,-0.12,0
-32.35,-39.55,80.32,0.30,-0.67,-0.19,0
-38.82,-34.85,88.26,0.33,-0.61,-0.13,0
-40.41,-42.42,90.58,0.29,-0.54,-0.27,0
-27.04,-33.87,85.51,0.35,-0.47,-0.30,0
-10.07,-27.65,82.09,0.39,-0.43,-0.27,0
5.74,-23.32,84.41,0.43,-0.43,-0.23,0
17.27,-20.26,94.54,0.47,-0.42,-0.13,0
23.38,-24.17,105.04,0.46,-0.40,-0.19,0
23.99,-25.09,111.57,0.41,-0.49,-0.16,0
20.94,-21.00,117.00,0.45,-0.34,-0.20,0
18.01,-9.46,126.83,0.52,-0.34,-0.19,0
-0.55,1.71,134.46,0.55,-0.32,-0.21,0
-30.21,15.56,137.88,0.59,-0.06,-0.28,0
-45.29,32.53,141.24,0.65,0.05,-0.28,0
-40.28,47.30,141.42,0.73,0.12,-0.31,0
-35.16,61.10,136.54,0.82,0.21,-0.34,0
-27.16,73.61,132.02,0.86,0.20,-0.36,0
-18.92,76.54,120.42,0.93,0.21,-0.30,0
-7.39,72.14,109.19,1.05,0.24,-0.29,0
2.50,67.44,100.04,1.12,0.42,-0.29,0
16.97,59.75,101.14,1.19,0.50,-0.27,0
37.23,43.40,107.48,1.22,0.62,-0.29,0
59.94,24.60,119.51,1.35,0.45,-0.30,0
62.87,8.42,126.34,1.46,0.40,-0.37,0
56.34,-0.31,129.88,1.43,0.61,-0.40,0
59.33,-6.53,130.37,1.46,0.62,-0.51,0
72.63,0.24,131.16,1.57,0.51,-0.50,0
66.83,9.58,120.48,1.61,0.47,-0.43,0
56.95,10.13,105.22,1.58,0.51,-0.41,0
49.80,5.25,92.77,1.54,0.45,-0.43,0
41.02,1.16,80.26,1.42,0.39,-0.45,0
27.89,-0.55,63.66,1.26,0.50,-0.40,0
23.19,-0.24,52.37,1.32,0.46,-0.36,0
15.44,0.98,44.37,1.31,0.39,-0.31,0
0.37,-0.73,32.84,1.28,0.44,-0.28,0
-7.69,-4.76,21.48,1.24,0.39,-0.26,0
-10.50,-5.62,13.37,1.18,0.37,-0.23,0
-10.99,-2.69,6.77,1.16,0.37,-0.20,0
-7.93,-3.05,3.72,1.15,0.36,-0.15,0
-0.24,-7.57,6.04,1.11,0.38,-0.16,0
12.08,-12.94,8.85,1.03,0.35,-0.27,0
22.52,-5.80,13.00,0.98,0.35,-0.39,0
24.05,17.33,23.80,0.99,0.21,-0.39,0
14.95,39.92,30.94,1.01,0.00,-0.35,0
-7.57,49.38,28.08,1.03,-0.04,-0.39,0
-36.13,44.62,18.98,1.03,-0.00,-0.34,0
-54.87,31.86,8.48,1.03,0.03,-0.33,0
-67.87,15.08,3.17,1.00,0.06,-0.30,0
-70.74,-0.92,0.06,0.93,0.10,-0.27,0
-64.88,-15.08,-1.28,0.93,0.13,-0.28,0
-55.54,-20.94,-2.93,0.89,0.11,-0.22,0
-45.84,-22.03,-10.68,0.75,0.11,-0.17,0
-33.39,-22.89,-29.11,0.78,0.14,-0.20,0
-20.81,-13.98,-37.90,0.74,0.13,-0.23,0
-4.09,1.65,-41.99,0.77,0.06,-0.28,0
46.81,4.76,-37.11,0.75,-0.04,-0.20,0
42.91,12.51,-20.20,0.72,-0.04,-0.18,0
23.32,26.37,-11.90,0.79,0.05,-0.23,0
11.54,34.97,-7.87,0.89,0.10,-0.28,0
-1.89,36.87,-6.84,0.99,0.09,-0.27,0
-2.14,28.75,-16.72,1.02,0.14,-0.30,0
2.69,18.37,-32.53,1.01,0.05,-0.33,0
5.62,7.02,-42.60,0.94,0.12,-0.32,0
10.56,1.95,-55.30,0.87,0.16,-0.37,0
36.93,2.14,-62.74,0.91,0.29,-0.40,0
47.00,9.70,-53.89,0.81,0.18,-0.31,0
42.60,16.30,-45.78,0.86,-0.04,-0.33,0
27.95,17.21,-26.86,0.85,0.09,-0.34,0
39.92,17.76,-9.46,0.87,0.11,-0.39,0
67.44,15.44,-0.43,0.79,-0.26,-0.27,0
26.86,28.14,-8.91,0.81,-0.18,-0.30,0
-3.11,37.29,-15.87,0.83,0.08,-0.34,0
-1.59,38.21,-13.12,0.82,0.06,-0.36,0
7.69,38.09,-11.17,0.86,0.03,-0.39,0
23.68,32.23,-12.02,0.89,-0.08,-0.36,0
24.78,22.40,-10.62,0.89,-0.12,-0.38,0
13.92,15.14,-6.23,0.84,-0.07,-0.42,0
11.96,6.35,-3.72,0.79,-0.07,-0.44,0
13.98,-0.55,-3.72,0.78,-0.13,-0.44,0
5.25,1.71,-2.26,0.83,-0.12,-0.38,0
1.77,3.11,-3.17,0.82,-0.11,-0.40,0
-1.53,5.86,-4.76,0.74,-0.15,-0.36,0
1.95,8.73,-10.68,0.79,-0.15,-0.37,0
4.09,9.34,-18.49,0.83,-0.07,-0.47,0
-5.98,13.85,-13.00,0.71,-0.12,-0.40,0
-10.01,18.55,-14.59,0.77,-0.14,-0.45,0
-22.16,22.34,-14.65,0.70,-0.26,-0.41,0
-37.11,22.89,-14.16,0.72,-0.21,-0.51,0
-55.60,24.23,-13.67,0.53,-0.27,-0.49,0
-71.59,30.64,-5.37,0.52,-0.23,-0.57,0
-96.92,48.52,14.28,0.56,-0.21,-0.53,0
-108.64,74.46,20.63,0.51,-0.23,-0.43,0
-115.23,90.39,16.05,0.51,-0.06,-0.49,0
-110.35,108.15,14.65,0.55,-0.04,-0.28,0
-83.25,115.78,15.01,0.59,0.08,-0.37,0
-68.36,112.43,23.38,0.15,0.04,-0.25,0
-57.92,89.66,57.07,0.68,0.14,-0.39,0
-42.54,86.43,75.62,0.84,0.11,-0.54,0
-26.92,89.11,67.57,0.67,0.02,-0.44,0
-9.28,78.55,60.67,0.68,-0.32,-0.34,0
20.87,63.23,42.97,0.70,0.05,-0.48,0
23.01,56.58,29.24,0.91,0.14,-0.67,0
5.13,46.02,31.07,0.68,0.75,-0.61,0
-11.47,23.38,75.44,0.15,0.48,-0.82,0
-38.76,17.33,135.25,1.38,0.67,-0.90,0
-25.51,36.99,157.35,1.42,0.45,-1.05,0
14.59,52.19,145.69,1.24,0.28,-0.82,0
53.34,58.59,130.37,1.25,0.27,-0.71,0
74.71,47.67,117.07,1.18,0.36,-0.58,0
89.17,24.29,100.71,1.27,0.26,-0.53,0
81.97,-1.89,83.62,1.02,0.29,-0.64,0
67.93,-7.87,66.53,1.13,0.31,-0.65,0
56.70,-2.32,43.21,1.21,0.30,-0.56,0
44.37,-5.31,9.03,1.10,0.45,-0.56,0
39.31,-8.79,-15.32,1.07,0.50,-0.60,0
36.93,-7.87,-23.62,1.12,0.58,-0.60,0
47.42,-9.34,-23.25,1.09,0.70,-0.68,0
96.56,-17.33,-24.29,1.10,0.63,-0.64,0
128.72,-20.81,-32.41,1.12,0.60,-0.64,0
91.49,-18.49,-43.15,1.17,0.61,-0.77,0
99.37,-26.86,-56.09,1.32,0.63,-0.72,0
108.76,-43.03,-70.68,1.34,0.60,-0.74,0
124.76,-65.73,-80.99,1.15,0.45,-0.67,0
121.77,-75.62,-89.42,1.12,0.43,-0.60,0
124.82,-77.09,-102.54,1.15,0.49,-0.57,0
127.75,-64.51,-107.67,1.04,0.45,-0.44,0
121.28,-50.05,-107.73,1.09,0.49,-0.34,0
115.72,-42.36,-104.74,1.15,0.46,-0.27,0
114.69,-42.18,-97.41,1.15,0.37,-0.26,0
106.02,-44.01,-95.09,1.10,0.44,-0.20,0
97.72,-44.68,-102.78,1.01,0.58,-0.24,0
101.81,-38.70,-113.04,0.97,0.60,-0.34,0
109.31,-27.95,-114.93,0.97,0.40,-0.37,0
104.92,-17.09,-114.14,0.95,0.21,-0.37,0
85.82,-8.42,-117.68,0.97,0.21,-0.34,0
65.67,-3.54,-121.22,0.93,0.24,-0.28,0
58.11,-0.55,-124.63,0.89,0.25,-0.25,0
57.01,2.08,-132.81,0.88,0.31,-0.20,0
66.71,6.35,-141.60,0.86,0.29,-0.17,0
80.69,10.38,-144.78,0.84,0.23,-0.13,0
91.98,14.40,-144.10,0.84,0.22,-0.11,0
101.62,16.66,-138.73,0.83,0.19,-0.12,0
108.34,17.33,-129.09,0.81,0.17,-0.21,0
114.50,15.69,-118.35,0.70,0.10,-0.20,0
117.55,22.83,-105.83,0.65,0.07,-0.25,0
116.52,33.63,-95.15,0.61,0.11,-0.27,0
119.75,47.55,-87.34,0.58,-0.01,-0.25,0
118.23,63.66,-81.30,0.55,-0.06,-0.26,0
113.65,79.10,-77.76,0.52,-0.06,-0.27,0
112.00,94.48,-72.14,0.51,-0.14,-0.29,0
106.57,109.50,-64.58,0.51,-0.15,-0.29,0
100.83,120.61,-59.75,0.53,-0.12,-0.23,0
102.36,122.31,-56.34,0.56,-0.09,-0.18,0
109.92,111.57,-49.56,0.52,-0.11,-0.22,0
113.95,95.28,-36.13,0.48,-0.15,-0.30,0
110.23,80.51,-20.57,0.40,-0.18,-0.41,0
105.16,73.73,-7.45,0.47,-0.15,-0.42,0
100.34,71.29,2.56,0.44,-0.13,-0.51,0
97.05,77.76,6.77,0.41,-0.13,-0.51,0
98.94,86.30,5.92,0.40,-0.18,-0.56,0
97.23,100.77,4.94,0.47,-0.19,-0.60,0
88.01,116.21,3.05,0.51,-0.16,-0.60,0
79.28,125.00,-1.16,0.55,-0.14,-0.57,0
72.75,124.57,-5.37,0.55,-0.06,-0.54,0
72.94,116.58,-3.72,0.56,-0.03,-0.51,0
75.07,104.74,1.65,0.58,-0.01,-0.48,0
77.33,89.23,8.97,0.56,0.02,-0.49,0
81.12,73.91,15.87,0.52,0.08,-0.55,0
83.86,63.78,22.58,0.46,0.15,-0.63,0
88.62,61.10,30.09,0.41,0.18,-0.68,0
92.53,67.50,37.48,0.39,0.15,-0.78,0
94.91,84.96,41.32,0.45,0.10,-0.84,0
87.89,101.50,40.10,0.54,0.14,-0.90,0
77.21,113.95,34.48,0.58,0.13,-0.90,0
70.74,118.84,24.05,0.60,0.16,-0.85,0
62.93,111.21,15.44,0.63,0.20,-0.83,0
57.25,95.64,10.93,0.66,0.25,-0.82,0
53.34,77.27,7.57,0.65,0.32,-0.81,0
53.22,56.64,3.66,0.61,0.37,-0.83,0
56.58,38.51,-0.06,0.57,0.41,-0.88,0
61.65,27.77,-2.32,0.54,0.44,-0.90,0
67.02,23.44,-3.36,0.51,0.45,-0.92,0
70.56,22.89,-3.85,0.51,0.43,-0.93,0
72.08,26.06,-5.55,0.50,0.40,-0.92,0
70.56,31.74,-7.75,0.51,0.40,-0.90,0
67.69,35.46,-9.52,0.49,0.41,-0.93,0
63.48,34.48,-8.85,0.51,0.41,-0.96,0
54.93,28.93,-6.59,0.53,0.38,-0.98,0
46.20,20.51,-4.88,0.53,0.36,-0.99,0
36.99,12.94,-4.82,0.52,0.39,-1.01,0
30.76,7.39,-7.26,0.47,0.37,-1.02,0
25.82,4.58,-9.77,0.49,0.39,-1.01,0
22.52,3.97,-11.66,0.49,0.39,-1.00,0
21.24,4.15,-13.55,0.49,0.38,-0.97,0
21.06,2.69,-14.71,0.49,0.37,-0.95,0
21.18,-2.44,-15.14,0.51,0.36,-0.94,0
20.14,-9.46,-16.48,0.57,0.34,-0.95,0
18.86,-22.22,-19.53,0.58,0.31,-0.99,0
15.44,-43.88,-19.90,0.58,0.30,-1.02,0
7.20,-68.30,-14.47,0.56,0.27,-1.09,0
-5.07,-88.50,-8.42,0.54,0.24,-1.14,0
-18.25,-100.40,-6.16,0.51,0.21,-1.15,0
-33.02,-103.52,-6.10,0.47,0.22,-1.10,0
-44.62,-99.49,-8.18,0.44,0.24,-1.02,0
-49.80,-89.78,-12.94,0.42,0.25,-0.93,0
-48.83,-77.51,-15.75,0.42,0.24,-0.86,0
-44.49,-66.59,-15.87,0.46,0.25,-0.79,0
-38.09,-63.35,-12.76,0.50,0.26,-0.74,0
-29.66,-68.85,-8.12,0.53,0.27,-0.71,0
-20.26,-79.77,-3.36,0.53,0.22,-0.74,0
-16.72,-91.31,2.26,0.55,0.17,-0.76,0
-16.91,-102.78,6.47,0.55,0.13,-0.78,0
-25.70,-112.24,11.72,0.53,0.11,-0.81,0
-39.73,-115.66,16.78,0.53,0.15,-0.83,0
-48.16,-113.34,19.96,0.50,0.23,-0.78,0
-45.90,-107.85,20.57,0.52,0.24,-0.70,0
-40.77,-99.18,20.94,0.56,0.22,-0.62,0
-34.85,-90.21,20.02,0.60,0.24,-0.55,0
-27.53,-85.14,19.29,0.63,0.32,-0.52,0
-18.68,-84.35,22.52,0.67,0.39,-0.52,0
-5.68,-85.39,28.81,0.69,0.39,-0.51,0
5.25,-83.86,34.73,0.77,0.36,-0.56,0
7.45,-78.55,37.23,0.86,0.33,-0.63,0
2.87,-70.19,33.39,0.89,0.32,-0.67,0
-5.92,-60.79,25.39,0.93,0.34,-0.68,0
-16.97,-53.59,17.15,0.97,0.35,-0.69,0
-28.08,-49.50,9.40,0.96,0.35,-0.69,0
-37.41,-47.06,0.92,0.96,0.37,-0.66,0
-44.80,-46.33,-5.68,0.98,0.39,-0.64,0
-52.19,-49.87,-9.95,1.01,0.38,-0.62,0
-59.33,-58.90,-14.16,1.02,0.36,-0.60,0
-67.75,-71.84,-17.88,1.08,0.36,-0.65,0
-79.47,-84.59,-22.95,1.11,0.33,-0.69,0
-91.37,-93.57,-33.08,1.08,0.32,-0.68,0
-100.65,-96.74,-45.72,1.08,0.38,-0.66,0
-106.02,-95.89,-55.73,1.13,0.39,-0.67,0
-108.83,-92.35,-65.49,1.12,0.35,-0.64,0
-110.66,-85.02,-76.11,1.15,0.33,-0.64,0
-115.78,-80.32,-87.89,1.25,0.28,-0.62,0
-122.19,-80.81,-106.51,1.21,0.23,-0.51,0
-123.78,-82.70,-127.69,1.15,0.28,-0.41,0
-116.58,-86.06,-139.22,1.09,0.37,-0.32,0
-95.15,-91.31,-138.98,1.01,0.38,-0.24,0
-64.51,-97.84,-132.14,0.96,0.29,-0.25,0
-37.17,-100.65,-123.54,0.95,0.19,-0.31,0
-22.95,-97.78,-116.46,0.96,0.10,-0.39,0
-21.61,-92.71,-113.71,0.92,0.02,-0.44,0
-28.44,-87.10,-115.66,0.90,-0.03,-0.47,0
-42.30,-80.14,-117.00,0.87,-0.07,-0.50,0
-60.73,-72.63,-117.31,0.82,-0.12,-0.51,0
-81.85,-64.51,-116.70,0.77,-0.16,-0.48,0
-102.36,-57.43,-112.37,0.74,-0.15,-0.41,0
-116.46,-52.49,-102.54,0.69,-0.13,-0.35,0
-123.17,-48.95,-88.20,0.65,-0.16,-0.33,0
-126.04,-45.59,-72.63,0.64,-0.20,-0.32,0
-127.99,-42.24,-59.63,0.66,-0.24,-0.33,0
-131.10,-39.61,-52.61,0.68,-0.27,-0.33,0
-133.91,-39.00,-54.02,0.66,-0.29,-0.29,0
-134.89,-40.53,-57.07,0.62,-0.29,-0.25,0
-133.30,-42.79,-57.43,0.57,-0.29,-0.21,0
-129.88,-45.35,-53.16,0.53,-0.29,-0.18,0
-125.92,-49.68,-45.35,0.48,-0.28,-0.16,0
-121.15,-55.48,-34.79,0.43,-0.30,-0.13,0
-116.88,-59.20,-22.71,0.39,-0.34,-0.10,0
-114.50,-60.06,-10.25,0.34,-0.36,-0.06,0
-113.46,-58.65,3.42,0.32,-0.35,-0.05,0
-113.28,-55.18,17.88,0.33,-0.34,-0.06,0
-116.52,-50.78,27.28,0.33,-0.35,-0.04,0
-124.15,-48.71,32.04,0.33,-0.29,0.01,0
-133.42,-49.19,38.57,0.31,-0.23,0.08,0
-139.47,-49.68,47.24,0.31,-0.19,0.16,0
-141.11,-47.97,56.82,0.34,-0.15,0.24,0
-137.63,-43.70,66.28,0.41,-0.13,0.26,0
-130.92,-36.74,70.68,0.43,-0.12,0.26,0
-124.45,-26.55,70.13,0.44,-0.09,0.26,0
-117.19,-12.82,69.09,0.44,-0.07,0.25,0
-110.23,5.00,69.82,0.44,-0.07,0.23,0
-103.70,26.37,72.81,0.44,-0.05,0.22,0
-98.33,46.14,78.49,0.46,-0.03,0.22,0
-94.85,59.69,86.18,0.54,0.02,0.24,0
-93.93,62.07,94.54,0.66,0.11,0.31,0
-93.08,49.01,104.74,0.76,0.21,0.37,0
-88.93,24.35,116.82,0.87,0.26,0.39,0
-83.25,0.43,126.28,0.96,0.29,0.39,0
-79.90,-15.01,132.75,1.04,0.32,0.39,0
-78.92,-21.91,137.76,1.11,0.35,0.40,0
-77.58,-21.55,139.28,1.19,0.37,0.42,0
-73.67,-15.87,134.95,1.25,0.37,0.43,0
-68.85,-6.96,124.45,1.28,0.38,0.44,0
-62.74,2.62,113.83,1.30,0.41,0.42,0
-57.62,14.65,103.76,1.34,0.40,0.41,0
-54.44,25.27,96.92,1.45,0.40,0.40,0
-49.80,34.00,96.86,1.59,0.43,0.40,0
-45.47,39.31,99.43,1.79,0.46,0.41,0
-42.24,33.33,97.29,1.81,0.49,0.39,0
-36.32,25.51,88.07,1.89,0.49,0.39,0
-26.25,14.34,68.36,1.89,0.48,0.38,0
-14.47,2.32,47.42,1.83,0.46,0.33,0
-6.65,-2.01,27.40,1.80,0.45,0.33,0
-1.10,-5.19,14.34,1.75,0.45,0.35,0
5.25,-14.77,6.77,1.66,0.46,0.34,0
11.60,-25.27,-0.55,1.56,0.44,0.35,0
18.55,-34.91,-7.81,1.45,0.42,0.32,0
25.09,-39.61,-14.16,1.40,0.40,0.32,0
29.66,-44.25,-18.92,1.33,0.37,0.30,0
33.33,-46.69,-24.05,1.25,0.32,0.28,0
35.64,-45.72,-30.52,1.17,0.30,0.27,0
37.11,-42.48,-35.64,1.09,0.28,0.26,0
39.18,-35.64,-38.57,1.04,0.25,0.26,0
41.38,-28.44,-39.37,1.00,0.22,0.27,0
43.58,-22.71,-39.00,0.98,0.19,0.25,0
45.59,-18.13,-38.15,0.96,0.15,0.22,0
46.75,-13.43,-38.09,0.96,0.10,0.18,0
45.96,-9.95,-39.00,0.97,0.06,0.15,0
43.58,-8.12,-41.20,0.96,0.04,0.15,0
40.16,-8.30,-43.33,0.94,0.01,0.15,0
37.35,-10.38,-43.95,0.92,-0.01,0.16,0
35.03,-13.85,-43.21,0.91,-0.00,0.17,0
33.14,-18.68,-39.67,0.91,0.01,0.19,0
32.84,-24.60,-33.69,0.91,0.01,0.21,0
35.10,-30.27,-28.02,0.90,0.01,0.21,0
37.96,-34.42,-22.34,0.91,0.01,0.20,0
42.18,-34.42,-15.87,0.94,-0.00,0.16,0
45.35,-30.40,-9.83,0.98,-0.03,0.11,0
46.81,-23.99,-7.20,1.04,-0.04,0.05,0
46.75,-14.22,-6.96,1.07,-0.06,0.01,0
45.10,-4.03,-12.08,1.07,-0.03,0.02,0
41.20,0.43,-18.43,1.06,0.03,0.05,0
35.58,-3.36,-21.79,1.02,0.11,0.10,0
31.92,-13.61,-20.69,0.99,0.14,0.15,0
30.46,-27.40,-17.09,0.95,0.11,0.20,0
27.77,-41.63,-13.85,0.91,0.08,0.25,0
23.93,-51.27,-11.29,0.85,0.09,0.26,0
21.85,-52.25,-8.91,0.78,0.08,0.26,0
22.03,-44.37,-8.18,0.72,0.08,0.26,0
21.91,-28.99,-7.20,0.67,0.06,0.25,0
22.16,-8.00,-6.29,0.64,0.03,0.24,0
21.73,16.05,-6.10,0.64,-0.02,0.22,0
18.43,39.98,-6.65,0.67,-0.04,0.25,0
13.06,58.29,-7.69,0.70,-0.03,0.28,0
10.19,67.69,-7.39,0.71,-0.02,0.30,0
11.60,68.91,-7.26,0.75,-0.03,0.32,0
16.91,62.93,-11.11,0.77,-0.04,0.34,0
23.80,49.62,-16.36,0.75,-0.03,0.34,0
32.65,35.40,-19.10,0.71,-0.04,0.27,0
40.28,27.16,-19.17,0.67,-0.08,0.19,0
45.10,27.10,-17.52,0.65,-0.12,0.13,0
46.39,31.98,-15.08,0.63,-0.17,0.10,0
43.27,38.94,-11.78,0.64,-0.22,0.08,0
37.66,46.94,-6.59,0.67,-0.23,0.08,0
33.08,54.81,0.98,0.70,-0.23,0.07,0
31.98,61.71,10.38,0.74,-0.20,0.06,0
33.26,65.98,18.86,0.77,-0.20,0.03,0
35.77,68.18,25.09,0.83,-0.20,-0.01,0
37.96,67.93,28.38,0.89,-0.19,-0.01,0
38.33,62.26,30.09,0.93,-0.15,-0.00,0
36.80,49.07,32.78,0.94,-0.12,-0.01,0
35.83,33.08,36.87,0.96,-0.11,-0.05,0
34.73,19.78,40.47,0.98,-0.12,-0.09,0
30.33,10.25,40.95,0.97,-0.10,-0.12,0
23.07,6.04,39.92,0.97,-0.07,-0.16,0
15.44,9.16,40.04,0.98,-0.01,-0.17,0
8.00,16.48,42.11,1.00,0.06,-0.13,0
2.38,21.55,45.90,1.04,0.12,-0.10,0
2.01,22.52,50.29,1.11,0.16,-0.06,0
6.65,20.51,55.18,1.21,0.16,-0.02,0
13.06,15.44,59.81,1.28,0.15,-0.00,0
18.01,7.32,61.22,1.31,0.14,-0.02,0
19.59,-1.40,59.81,1.31,0.14,-0.04,0
16.91,-8.42,55.79,1.30,0.13,-0.05,0
9.16,-13.49,49.32,1.24,0.13,-0.09,0
-3.85,-14.16,40.83,1.19,0.14,-0.10,0
-18.92,-8.30,31.01,1.15,0.15,-0.06,0
-34.18,1.04,21.48,1.11,0.17,0.01,0
-45.72,11.05,12.45,1.09,0.18,0.08,0
-52.43,20.14,4.58,1.07,0.19,0.15,0
-54.20,27.22,-2.20,1.04,0.20,0.22,0
-50.29,29.91,-6.71,1.03,0.22,0.28,0
-41.08,28.63,-8.85,1.00,0.22,0.31,0
-28.56,25.02,-8.48,0.97,0.19,0.31,0
-14.89,22.95,-6.90,0.95,0.18,0.31,0
-1.59,22.16,-4.33,0.96,0.17,0.30,0
12.02,20.08,0.49,0.95,0.16,0.26,0
23.99,17.21,4.94,0.94,0.13,0.21,0
31.92,15.08,7.81,0.95,0.11,0.16,0
35.10,14.10,10.31,0.96,0.09,0.12,0
34.18,14.77,11.47,0.98,0.07,0.06,0
29.24,16.91,8.97,1.02,0.02,0.02,0
20.57,19.29,1.22,1.03,-0.02,0.01,0
8.97,21.79,-8.06,1.02,-0.02,0.02,0
-1.53,24.41,-15.99,1.00,0.01,0.05,0
-7.87,26.86,-21.06,0.96,0.04,0.07,0
-9.40,29.24,-22.22,0.92,0.06,0.07,0
-8.12,32.47,-20.14,0.90,0.05,0.07,0
-6.71,36.87,-16.30,0.89,0.05,0.07,0
-5.13,41.69,-11.78,0.87,0.07,0.05,0
-3.23,47.06,-7.14,0.86,0.06,0.02,0
-1.89,52.92,-2.50,0.86,0.05,0.00,0
-1.40,58.59,1.95,0.86,0.06,-0.01,0
-0.67,63.05,5.74,0.85,0.05,-0.05,0
-0.85,66.28,8.91,0.85,0.04,-0.08,0
-2.14,69.09,11.23,0.86,0.04,-0.09,0
-3.54,70.19,12.57,0.88,0.04,-0.09,0
-3.54,68.05,12.76,0.88,0.05,-0.08,0
-0.98,63.96,12.15,0.87,0.04,-0.09,0
2.93,60.55,11.60,0.84,0.03,-0.11,0
5.92,60.97,12.21,0.79,0.04,-0.16,0
7.75,66.47,15.44,0.77,0.03,-0.24,0
8.30,79.04,21.48,0.76,0.00,-0.32,0
5.74,98.39,28.14,0.76,-0.01,-0.38,0
0.55,119.45,34.79,0.78,-0.00,-0.41,0
-4.58,137.57,40.22,0.87,0.01,-0.38,0
-7.14,145.69,41.44,0.94,0.04,-0.34,0
-6.29,140.26,39.67,0.97,0.08,-0.33,0
-2.08,124.76,36.87,0.99,0.11,-0.35,0
3.72,102.66,33.69,1.00,0.12,-0.36,0
9.09,76.78,31.07,1.01,0.11,-0.36,0
12.88,48.03,29.17,0.98,0.12,-0.39,0
15.14,22.09,29.66,0.93,0.13,-0.44,0
16.48,5.74,33.20,0.89,0.12,-0.47,0
16.17,-1.04,37.23,0.86,0.12,-0.50,0
14.89,0.12,40.71,0.86,0.12,-0.51,0
13.43,6.41,42.48,0.88,0.12,-0.48,0
11.41,13.85,41.81,0.91,0.16,-0.44,0
10.86,18.31,39.73,0.95,0.20,-0.37,0
13.85,17.09,36.32,0.98,0.23,-0.33,0
18.98,10.68,31.74,1.00,0.26,-0.30,0
26.00,0.98,26.86,1.04,0.29,-0.26,0
36.01,-12.27,21.55,1.08,0.31,-0.23,0
48.28,-31.01,15.69,1.09,0.32,-0.23,0
61.10,-51.76,10.07,1.08,0.32,-0.24,0
71.84,-70.13,5.25,1.06,0.30,-0.26,0
79.77,-83.01,0.92,1.04,0.28,-0.28,0
87.52,-90.21,-3.23,0.90,0.20,-0.35,0
95.34,-91.67,-7.75,0.83,0.08,-0.41,0
73.24,-67.38,-10.68,0.97,0.21,-0.29,0
52.31,-52.19,-3.23,0.98,0.34,-0.14,0
58.47,-62.93,4.70,0.97,0.32,-0.17,0
68.60,-68.18,3.85,0.98,0.25,-0.19,0
64.76,-66.96,1.71,0.99,0.23,-0.15,0
57.19,-68.97,2.44,0.96,0.24,-0.14,0
49.87,-66.89,3.60,0.96,0.23,-0.12,0
42.48,-60.30,3.72,0.99,0.26,-0.08,0
40.41,-54.93,2.44,1.01,0.28,-0.03,0
43.58,-54.44,0.73,1.02,0.28,-0.02,0
48.22,-55.30,-1.46,1.03,0.28,-0.00,0
56.21,-55.60,-5.19,1.05,0.30,0.03,0
65.12,-59.20,-7.39,1.05,0.29,0.03,0
72.02,-64.64,-9.09,1.00,0.26,0.00,0
74.89,-66.89,-11.84,0.97,0.25,-0.04,0
73.67,-64.64,-13.00,0.93,0.21,-0.08,0
67.75,-58.78,-13.43,0.90,0.17,-0.10,0
55.24,-50.54,-14.04,0.89,0.15,-0.10,0
38.76,-41.81,-12.76,0.86,0.13,-0.09,0
20.26,-32.04,-9.89,0.82,0.15,-0.07,0
7.75,-19.84,-8.24,0.83,0.17,-0.04,0
-2.87,-9.16,-5.07,0.84,0.16,-0.01,0
-13.37,-0.24,-1.04,0.87,0.18,0.04,0
-17.58,5.74,1.10,0.90,0.23,0.12,0
-12.88,4.27,3.42,0.92,0.26,0.17,0
-2.14,-3.48,5.86,0.94,0.26,0.19,0
11.66,-13.67,7.63,0.90,0.24,0.15,0
20.94,-20.02,10.68,0.85,0.22,0.07,0
23.13,-19.84,16.97,0.80,0.20,-0.00,0
19.47,-12.39,25.82,0.77,0.18,-0.07,0
10.44,0.12,35.22,0.79,0.13,-0.09,0
-5.00,13.92,42.30,0.84,0.11,-0.08,0
-22.58,26.67,46.20,0.87,0.14,-0.07,0
-36.01,38.64,44.92,0.91,0.19,-0.04,0
-43.03,48.16,39.92,0.95,0.21,-0.01,0
-46.45,51.27,35.89,1.00,0.26,0.05,0
-39.37,48.95,30.40,0.97,0.34,0.11,0
-23.62,40.53,26.06,0.94,0.35,0.08,0
-11.17,29.36,28.63,0.90,0.34,0.01,0
-5.07,19.78,37.29,0.91,0.30,-0.02,0
-5.49,12.57,47.49,0.89,0.29,-0.07,0
-9.77,10.07,55.79,0.81,0.29,-0.17,0
-20.39,14.71,64.51,0.79,0.28,-0.20,0
-34.00,24.66,71.59,0.83,0.28,-0.18,0
-45.29,36.07,73.06,0.90,0.28,-0.16,0
-55.97,46.57,66.65,0.94,0.28,-0.14,0
-63.78,55.24,53.16,0.97,0.34,-0.11,0
-64.33,59.45,37.35,1.01,0.42,0.00,0
-54.32,55.79,24.90,1.00,0.48,0.07,0
-37.66,40.83,19.17,0.98,0.53,0.07,0
-16.72,21.79,18.19,0.95,0.51,0.03,0
3.91,10.01,18.01,0.96,0.46,-0.02,0
18.55,4.76,16.78,0.98,0.43,-0.05,0
27.34,3.78,13.92,0.98,0.41,-0.08,0
33.14,6.90,8.97,0.97,0.43,-0.11,0
37.05,12.57,3.17,0.95,0.45,-0.12,0
40.22,18.86,-2.26,0.93,0.47,-0.13,0
42.36,23.44,-5.13,0.88,0.47,-0.18,0
40.41,27.34,-3.11,0.86,0.44,-0.21,0
34.48,31.19,1.65,0.88,0.41,-0.21,0
27.22,31.31,5.92,0.91,0.40,-0.18,0
21.91,27.22,7.45,0.92,0.39,-0.16,0
19.35,21.67,6.04,0.91,0.39,-0.15,0
18.62,15.81,2.62,0.92,0.38,-0.16,0
16.97,10.31,-1.53,0.99,0.36,-0.17,0
12.94,2.56,-8.73,1.04,0.35,-0.17,0
8.42,-8.42,-20.02,1.06,0.36,-0.15,0
5.25,-21.24,-31.31,1.06,0.39,-0.13,0
5.19,-35.34,-40.47,1.05,0.41,-0.10,0
8.85,-49.13,-47.85,1.03,0.43,-0.08,0
15.26,-60.79,-52.25,0.99,0.44,-0.08,0
22.89,-67.63,-53.28,0.93,0.44,-0.09,0
29.60,-68.60,-51.82,0.91,0.40,-0.10,0
31.86,-63.96,-48.58,0.90,0.36,-0.08,0
30.33,-56.58,-44.86,0.90,0.35,-0.06,0
28.50,-48.89,-42.30,0.90,0.37,-0.04,0
27.89,-42.18,-41.14,0.96,0.37,-0.01,0
27.95,-39.49,-43.70,1.04,0.35,0.05,0
27.71,-42.11,-51.51,1.09,0.34,0.11,0
28.99,-48.65,-62.62,1.11,0.37,0.15,0
34.48,-57.80,-72.94,1.13,0.43,0.15,0
44.68,-66.77,-77.33,1.08,0.46,0.17,0
57.07,-73.49,-78.92,1.05,0.41,0.16,0
66.59,-75.62,-80.14,1.03,0.34,0.13,0
70.92,-73.18,-81.42,1.03,0.31,0.13,0
71.23,-67.69,-81.05,1.02,0.29,0.14,0
71.47,-59.88,-80.57,1.01,0.27,0.15,0
71.41,-49.44,-81.73,1.01,0.27,0.18,0
71.66,-38.51,-84.23,1.03,0.29,0.20,0
74.52,-28.99,-86.30,1.06,0.26,0.21,0
77.45,-23.32,-90.88,1.09,0.20,0.24,0
77.70,-21.97,-97.35,1.09,0.19,0.25,0
77.45,-26.00,-100.95,1.04,0.21,0.22,0
79.65,-33.14,-98.88,1.00,0.18,0.20,0
81.73,-38.39,-92.96,0.99,0.13,0.18,0
79.71,-40.65,-83.19,0.94,0.04,0.19,0
74.04,-41.56,-77.45,0.94,0.01,0.19,0
69.58,-41.44,-73.91,0.94,0.03,0.21,0
69.21,-39.61,-69.89,0.93,0.04,0.22,0
71.78,-36.19,-66.83,0.90,0.02,0.24,0
75.93,-32.84,-66.89,0.87,0.02,0.22,0
80.81,-30.58,-63.05,0.83,0.03,0.20,0
88.50,-27.71,-55.73,0.81,-0.04,0.18,0
91.00,-23.62,-44.19,0.83,-0.12,0.15,0
81.85,-20.57,-33.39,0.76,-0.14,0.11,0
69.34,-14.40,-27.16,0.77,-0.13,0.11,0
59.45,-7.81,-19.04,0.78,-0.14,0.12,0
50.66,-1.10,-10.93,0.77,-0.14,0.17,0
39.43,10.62,-6.47,0.83,-0.11,0.19,0
34.91,18.01,-2.69,0.84,-0.07,0.20,0
46.02,15.01,-1.40,0.85,-0.10,0.19,0
47.00,15.14,-0.79,0.87,-0.11,0.18,0
48.34,12.63,2.56,0.85,-0.13,0.14,0
45.10,12.15,7.26,0.83,-0.16,0.10,0
38.82,15.14,12.57,0.84,-0.16,0.11,0
32.17,19.29,17.82,0.86,-0.13,0.12,0
28.44,21.48,20.63,0.90,-0.12,0.13,0
27.28,21.91,20.26,0.94,-0.12,0.15,0
27.10,21.06,15.69,1.01,-0.08,0.11,0
24.66,13.24,8.00,1.08,-0.09,-0.02,0
18.07,0.12,-1.89,1.02,-0.11,-0.09,0
11.78,-7.81,-7.87,0.98,-0.11,-0.15,0
1.10,-11.29,-7.69,0.95,-0.15,-0.10,0
-9.70,-9.09,-7.39,0.91,-0.11,-0.04,0
-17.52,-3.48,-6.59,0.87,-0.03,0.02,0
-17.52,2.87,-2.93,0.86,0.01,0.08,0
-13.18,9.28,2.93,0.87,0.03,0.11,0
-9.40,15.69,8.18,0.85,0.05,0.12,0
-6.10,20.81,13.55,0.84,-0.00,0.16,0
-1.95,26.61,20.45,0.89,-0.07,0.27,0
2.32,33.57,26.49,0.92,-0.04,0.33,0
8.61,39.31,28.63,0.96,0.00,0.32,0
18.49,40.53,29.11,1.00,-0.00,0.29,0
27.59,36.50,30.76,1.01,-0.05,0.25,0
30.15,31.31,33.57,1.01,-0.08,0.21,0
28.38,26.61,34.48,1.01,-0.08,0.17,0
25.70,22.03,33.33,1.01,-0.10,0.15,0
20.63,18.80,32.59,1.02,-0.13,0.16,0
12.70,17.70,33.57,1.03,-0.12,0.16,0
7.81,14.95,33.57,0.98,-0.01,0.20,0
11.96,7.02,33.08,1.02,0.05,0.23,0
23.38,-2.62,36.62,1.08,0.01,0.18,0
31.80,-12.33,39.12,1.03,-0.02,0.13,0
32.29,-16.05,38.27,0.99,-0.04,0.10,0
28.87,-13.18,36.74,1.00,-0.08,0.09,0
21.12,-8.30,36.38,0.99,-0.09,0.09,0
10.56,-4.15,37.60,0.98,-0.06,0.13,0
1.83,0.00,36.13,1.00,-0.01,0.19,0
-1.65,2.87,32.59,1.02,0.02,0.20,0
-0.98,3.91,27.40,1.01,0.04,0.18,0
1.04,4.52,22.64,1.02,0.03,0.15,0
1.53,6.10,18.43,1.02,0.03,0.13,0
-0.49,8.06,14.22,1.03,0.03,0.12,0
-3.42,9.16,9.58,1.02,0.04,0.12,0
-5.31,8.67,6.16,1.01,0.04,0.13,0
-6.65,6.23,4.82,0.99,0.03,0.12,0
-9.03,4.88,5.86,0.96,0.02,0.09,0
-12.88,4.94,8.48,0.92,0.03,0.08,0
-17.64,6.71,11.90,0.90,0.04,0.07,0
-22.03,10.86,16.85,0.89,0.03,0.07,0
-27.22,16.66,22.77,0.89,0.02,0.10,0
-32.35,23.13,27.34,0.93,0.04,0.12,0
-35.10,26.79,29.42,0.97,0.05,0.13,0
-33.69,26.37,28.38,0.96,0.04,0.12,0
-30.88,25.15,25.21,0.96,0.05,0.12,0
-29.97,24.72,23.13,0.95,0.08,0.11,0
-26.18,23.50,21.61,0.95,0.09,0.10,0
-21.79,21.91,21.12,0.95,0.09,0.10,0
-16.72,20.08,20.39,0.97,0.11,0.09,0
-12.88,17.21,17.40,1.00,0.11,0.12,0
-9.34,15.69,11.05,1.04,0.10,0.17,0
-3.78,14.28,0.92,1.05,0.14,0.18,0
7.14,8.42,-10.56,1.06,0.14,0.15,0
15.75,1.77,-15.01,1.04,0.12,0.11,0
17.82,-4.27,-13.49,1.00,0.08,0.07,0
13.37,-7.08,-9.03,0.97,0.05,0.04,0
5.25,-4.64,-3.60,0.96,0.05,0.07,0
-3.11,1.53,0.61,0.97,0.09,0.14,0
-5.68,8.12,1.34,1.00,0.12,0.21,0
-3.30,13.67,1.04,1.03,0.15,0.25,0
3.54,16.17,0.37,1.10,0.19,0.27,0
13.55,13.24,-1.16,1.12,0.17,0.25,0
23.50,7.14,-2.69,1.08,0.16,0.21,0
32.41,2.01,-4.88,1.05,0.13,0.17,0
36.99,0.18,-5.49,1.06,0.12,0.12,0
36.38,-0.24,-5.25,1.05,0.10,0.05,0
32.17,-0.55,-5.86,1.04,0.07,0.02,0
28.02,1.65,-6.35,1.04,0.07,-0.01,0
23.68,0.92,-7.87,1.02,0.05,-0.03,0
17.82,-3.23,-8.36,0.99,0.02,-0.04,0
9.03,-6.04,-7.20,0.95,0.01,-0.04,0
0.24,-6.29,-6.41,0.95,0.04,0.01,0
-2.93,-6.77,-8.61,0.94,0.08,0.04,0
-1.22,-9.70,-10.86,0.93,0.06,0.03,0
-0.37,-12.63,-11.60,0.93,0.02,0.02,0
-2.38,-15.50,-12.94,0.94,0.01,0.02,0
-4.94,-20.39,-14.28,0.96,0.01,0.04,0
-7.32,-27.47,-12.63,0.96,0.00,0.04,0
-11.96,-35.03,-9.46,0.97,-0.01,0.02,0
-18.37,-40.47,-4.88,0.97,-0.02,-0.00,0
-26.25,-43.27,0.43,0.95,-0.02,-0.04,0
-36.50,-40.65,-2.26,0.97,-0.04,-0.01,0
-51.21,-29.54,-4.21,0.98,0.03,0.04,0
-58.65,-18.68,-7.63,0.98,0.07,0.12,0
-57.98,-11.90,-10.86,0.98,0.10,0.15,0
-55.60,-7.39,-14.16,0.99,0.14,0.21,0
-49.01,-3.30,-19.23,0.97,0.17,0.25,0
-36.80,-0.55,-18.37,0.93,0.20,0.27,0
-20.87,-2.50,-13.92,0.92,0.16,0.26,0
-7.14,-6.53,-8.48,0.92,0.11,0.24,0
1.40,-8.30,-2.26,0.91,0.08,0.22,0
5.80,-8.91,2.99,0.92,0.06,0.18,0
7.87,-7.81,5.86,0.93,0.04,0.16,0
6.77,-4.27,6.23,0.95,0.03,0.17,0
3.54,0.73,5.31,0.96,0.07,0.17,0
5.19,3.78,5.49,0.97,0.08,0.17,0
9.28,4.27,7.20,0.99,0.04,0.17,0
9.89,3.11,8.79,1.00,0.02,0.17,0
8.06,0.92,9.28,1.00,0.02,0.16,0
5.74,-0.61,9.34,0.97,0.01,0.14,0
3.23,-0.43,9.89,0.97,0.02,0.14,0
1.77,-0.49,10.31,0.97,0.03,0.15,0
1.28,0.12,9.83,0.96,0.04,0.16,0
2.44,2.01,7.45,0.98,0.04,0.17,0
4.76,3.85,5.25,0.97,0.04,0.15,0
5.00,4.88,4.82,0.96,0.04,0.15,0
3.48,6.04,4.94,0.96,0.07,0.15,0
4.27,7.14,5.13,0.96,0.07,0.15,0
5.92,7.69,5.31,0.96,0.05,0.15,0
6.23,9.46,4.09,0.95,0.05,0.13,0
4.58,12.33,2.81,0.95,0.08,0.11,0
3.66,12.63,3.72,0.99,0.09,0.12,0
4.03,9.28,5.98,0.99,0.06,0.11,0
2.93,6.29,7.93,0.97,0.06,0.09,0
0.49,6.10,9.70,1.01,0.08,0.11,0
-1.04,4.58,11.23,1.03,0.08,0.12,0
-2.14,1.71,12.45,1.01,0.07,0.12,0
-1.40,-0.73,11.84,1.00,0.09,0.12,0
-0.31,-2.44,10.19,1.00,0.09,0.10,0
0.61,-3.60,8.85,1.00,0.07,0.11,0
1.22,-3.60,5.00,0.99,0.09,0.11,0
2.01,-3.54,0.67,1.00,0.11,0.08,0
2.87,-4.21,-0.67,0.99,0.10,0.04,0
0.61,-4.03,0.31,0.99,0.09,0.01,0
-2.56,-3.17,0.73,0.98,0.05,-0.02,0
-7.26,-0.67,-2.87,1.01,0.05,-0.02,0
-14.40,-0.79,-6.96,1.04,0.04,-0.03,0
-22.58,-4.39,-12.39,1.05,0.03,-0.04,0
-33.14,-9.40,-19.04,1.05,0.04,-0.03,0
-42.30,-15.75,-25.63,1.05,0.06,-0.02,0
-48.65,-23.80,-30.09,1.02,0.07,-0.01,0
-52.19,-29.72,-33.26,0.99,0.10,0.01,0
-52.55,-31.92,-35.77,0.97,0.09,0.02,0
-52.80,-30.33,-37.72,0.96,0.06,0.01,0
-55.42,-27.04,-39.00,0.92,0.09,0.02,0
-57.50,-19.96,-36.62,0.90,0.04,0.05,0
-61.58,-11.60,-32.65,0.91,0.02,0.04,0
-68.30,-4.76,-31.07,0.90,0.04,0.05,0
-73.00,2.08,-31.49,0.91,0.01,0.09,0
-78.19,6.90,-30.27,0.92,0.03,0.12,0
-80.38,6.16,-29.05,0.94,0.04,0.17,0
-78.19,-0.24,-28.02,0.95,0.04,0.21,0
-72.33,-8.06,-29.97,0.92,0.04,0.19,0
-65.67,-11.72,-33.81,0.90,0.03,0.18,0
-60.85,-11.54,-36.13,0.83,0.03,0.16,0
-57.07,-8.06,-35.22,0.79,-0.01,0.16,0
-56.46,-2.56,-30.88,0.80,-0.06,0.14,0
-61.22,2.32,-26.55,0.80,-0.05,0.15,0
-66.89,6.29,-24.66,0.82,-0.07,0.15,0
-70.86,10.80,-24.11,0.84,-0.10,0.11,0
-78.19,16.97,-25.82,0.88,-0.06,0.10,0
-85.45,20.26,-27.71,0.88,-0.03,0.13,0
-88.07,19.47,-27.59,0.90,-0.04,0.15,0
-89.84,16.05,-27.04,0.97,-0.04,0.16,0
-89.72,9.52,-32.90,0.95,-0.01,0.16,0
-87.71,3.60,-40.89,0.91,-0.00,0.15,0
-84.41,0.85,-41.02,0.86,-0.02,0.13,0
-83.19,2.50,-34.36,0.83,-0.03,0.13,0
-82.15,8.24,-25.39,0.81,-0.02,0.11,0
-80.44,17.15,-18.62,0.83,-0.06,0.07,0
-83.56,28.44,-19.04,0.84,-0.09,0.06,0
-91.19,38.94,-23.68,0.86,-0.05,0.10,0
-98.14,46.02,-24.05,0.88,-0.00,0.15,0
-100.28,46.57,-19.84,0.93,0.04,0.27,0
-92.47,38.88,-16.97,0.94,0.04,0.31,0
-79.28,27.40,-15.87,0.91,0.03,0.31,0
-66.83,17.46,-12.33,0.89,0.01,0.28,0
-57.31,11.78,-6.35,0.89,-0.01,0.21,0
-53.22,13.24,-0.61,0.92,-0.03,0.17,0
-53.28,18.98,4.46,0.96,-0.04,0.13,0
-52.67,25.76,6.16,1.01,-0.03,0.09,0
-50.90,31.19,4.64,1.06,-0.03,0.06,0
-52.00,31.92,1.71,1.12,-0.03,0.02,0
-56.88,30.82,-0.43,1.08,-0.02,-0.01,0
-62.13,30.03,-0.67,1.10,0.02,0.02,0
-63.11,29.24,1.71,1.12,0.02,0.08,0
-60.61,24.60,7.32,1.14,0.02,0.12,0
-57.31,17.03,14.53,1.16,0.03,0.17,0
-49.87,7.20,19.59,1.19,0.06,0.19,0
-38.33,-1.89,20.63,1.19,0.06,0.17,0
-26.49,-5.31,17.76,1.17,0.06,0.15,0
-17.88,-4.09,13.43,1.13,0.06,0.11,0
-14.71,3.42,11.17,1.11,0.03,0.06,0
-18.13,13.31,7.69,1.10,0.03,0.06,0
-23.07,20.75,2.08,1.10,0.04,0.08,0
-25.39,23.07,-1.71,1.07,0.05,0.10,0
-25.51,22.40,-1.95,1.02,0.04,0.11,0
-24.66,21.36,1.34,1.01,0.03,0.14,0
-22.34,17.94,7.32,1.00,0.04,0.19,0
-16.48,11.72,13.92,1.00,0.04,0.22,0
-8.61,5.31,18.80,1.00,0.03,0.21,0
-1.77,-0.61,21.36,1.00,0.01,0.19,0
2.50,-5.37,20.94,1.01,0.00,0.16,0
4.03,-7.93,19.35,0.99,0.00,0.12,0
3.54,-5.86,17.58,0.99,-0.01,0.06,0
0.73,2.26,14.10,1.01,-0.02,0.04,0
-3.05,11.90,7.63,1.01,-0.02,0.03,0
-6.71,19.84,1.59,0.99,-0.01,0.05,0
-8.54,24.96,-0.73,0.99,-0.02,0.08,0
-8.97,26.25,0.85,1.00,-0.02,0.09,0
-8.54,21.79,3.97,0.99,0.02,0.10,0
-6.90,16.11,9.46,1.00,0.02,0.08,0
-5.98,11.90,14.34,1.01,0.00,0.05,0
-6.84,10.56,14.47,1.02,0.01,0.04,0
-7.57,13.37,12.27,1.04,0.02,0.05,0
-6.29,17.33,8.24,1.05,0.03,0.04,0
-3.23,20.81,4.46,1.06,0.03,0.01,0
-0.92,24.48,1.89,1.05,0.04,0.00,0
1.53,27.71,-0.37,1.05,0.03,-0.01,0
2.93,30.03,-1.71,1.04,0.04,-0.02,0
2.81,29.91,-2.20,1.05,0.05,-0.02,0
2.81,25.70,-1.83,1.06,0.04,-0.04,0
2.20,18.31,-0.92,1.06,0.03,-0.05,0
1.10,11.29,0.00,1.04,0.03,-0.07,0
0.43,6.71,1.34,1.02,0.02,-0.08,0
-0.06,4.88,2.69,1.02,0.03,-0.09,0
-0.43,4.64,3.05,1.02,0.02,-0.08,0
0.61,4.94,2.50,1.03,0.03,-0.07,0
2.62,4.58,0.67,1.02,0.02,-0.08,0
3.48,4.88,-1.89,1.01,0.01,-0.10,0
1.71,6.23,-4.46,1.01,0.00,-0.10,0
-0.79,7.75,-6.10,1.01,-0.00,-0.09,0
-2.56,8.18,-6.59,1.00,-0.01,-0.06,0
-2.62,6.23,-6.10,0.99,-0.01,-0.05,0
-2.26,3.54,-3.97,0.99,-0.01,-0.04,0
-2.44,0.43,-1.22,0.99,-0.00,-0.03,0
-1.16,-2.20,0.92,0.99,-0.00,-0.02,0
1.40,-4.09,2.44,0.99,0.01,-0.03,0
3.42,-3.72,3.23,0.99,0.01,-0.05,0
2.93,-2.20,2.50,1.01,0.01,-0.05,0
0.79,-1.83,0.92,1.00,0.01,-0.04,0
-0.61,-2.56,-0.85,1.00,0.01,-0.03,0
-1.59,-3.72,-1.89,1.00,-0.00,-0.02,0
-2.93,-4.82,-2.38,0.99,-0.01,-0.01,0
-3.54,-5.68,-1.77,0.97,-0.02,0.00,0
-3.30,-5.74,0.79,0.96,-0.02,0.00,0
-3.23,-4.94,3.66,0.98,-0.01,0.01,0
-1.77,-4.58,5.62,0.98,0.01,0.00,0
0.98,-3.97,6.23,0.98,0.02,-0.01,0
2.44,-2.20,6.23,0.98,0.03,-0.03,0
1.95,0.92,5.62,0.99,0.04,-0.04,0
1.22,4.39,3.72,1.01,0.04,-0.02,0
0.49,3.78,0.85,1.01,0.04,-0.02,0
-0.67,1.28,-0.92,1.03,0.02,-0.01,0
-2.38,-2.14,-2.81,1.02,0.02,-0.01,0
-2.44,-4.58,-4.39,1.00,0.01,-0.01,0
-2.20,-4.33,-4.76,1.01,-0.00,0.00,0
-1.83,-3.85,-3.91,0.98,0.01,0.01,0
0.37,-1.53,-1.59,0.99,-0.00,0.02,0
3.54,1.16,1.22,1.01,0.01,0.04,0
8.36,1.04,2.81,1.01,0.03,0.05,0
14.77,-0.49,2.69,1.01,0.02,0.02,0
17.40,-1.16,1.65,1.01,0.02,-0.02,0
15.81,-1.65,-0.18,1.01,0.01,-0.03,0
11.84,-2.20,-2.50,1.00,0.02,-0.06,0
6.84,-0.92,-4.21,1.00,-0.01,-0.06,0
1.10,0.55,-5.25,1.01,-0.01,-0.05,0
-4.82,0.49,-5.25,0.99,-0.01,-0.05,0
-9.16,0.73,-3.66,0.99,0.00,-0.03,0
-12.21,1.04,-1.10,1.02,0.03,0.00,0
-12.39,-1.16,1.71,1.07,0.07,0.05,0
-7.32,-6.16,4.27,1.12,0.07,0.06,0
-1.16,-10.74,2.75,1.15,0.07,0.05,0
4.39,-13.92,-2.69,1.16,0.07,0.05,0
9.70,-14.22,-8.30,1.14,0.06,0.04,0
13.55,-12.15,-12.27,1.14,0.04,0.04,0
14.47,-11.17,-13.31,1.11,0.03,0.02,0
13.24,-10.99,-14.22,1.10,0.03,0.01,1
11.78,-11.66,-15.56,1.07,0.01,0.01,1
8.85,-9.89,-15.32,1.06,0.04,0.01,1
8.48,-9.34,-14.22,1.03,0.01,-0.03,1
6.65,-8.42,-13.92,1.02,-0.00,-0.05,1
2.87,-7.81,-14.10,1.02,-0.01,-0.05,1
0.18,-7.75,-14.16,1.05,-0.01,-0.04,1
-1.65,-8.36,-17.46,1.07,-0.04,-0.06,1
-5.00,-9.46,-23.93,1.08,-0.03,-0.04,1
-6.41,-11.11,-30.58,1.04,-0.04,-0.02,1
-6.47,-11.23,-34.61,1.00,-0.04,-0.02,1
-6.71,-10.01,-34.61,0.99,-0.03,-0.00,1
-6.47,-9.70,-31.37,1.00,-0.02,0.02,1
-5.43,-12.15,-26.73,1.01,-0.02,0.02,1
-4.21,-15.81,-22.09,1.03,-0.02,0.03,1
-3.17,-18.37,-17.88,1.05,-0.01,0.04,1
-2.32,-19.17,-14.71,1.10,-0.03,0.02,1
-3.60,-18.74,-14.89,1.15,-0.04,0.00,1
-7.14,-16.36,-18.68,1.16,-0.05,-0.01,1
-11.72,-10.86,-23.80,1.18,-0.04,0.01,1
-13.43,-3.85,-29.91,1.19,-0.04,0.07,1
-11.66,3.54,-36.87,1.20,-0.01,0.10,1
-6.16,9.34,-43.40,1.18,-0.00,0.12,1
-0.18,12.82,-46.20,1.16,-0.02,0.12,1
2.87,14.28,-46.02,1.16,-0.01,0.14,1
5.62,12.15,-43.76,1.15,-0.01,0.15,1
8.36,8.18,-41.38,1.13,-0.02,0.12,1
8.18,5.49,-38.82,1.11,-0.05,0.08,1
2.75,5.74,-36.62,1.10,-0.05,0.07,1
-4.52,5.74,-35.40,1.13,-0.03,0.12,1
-7.08,0.85,-38.15,1.18,-0.00,0.18,1
-1.22,-10.31,-45.17,1.17,-0.01,0.21,1
8.61,-22.89,-52.49,1.13,-0.04,0.18,1
16.24,-31.25,-57.31,1.08,-0.09,0.15,1
19.17,-32.71,-59.27,1.05,-0.10,0.12,1
20.45,-28.87,-60.91,1.00,-0.14,0.10,1
19.90,-21.06,-62.38,0.97,-0.15,0.08,1
16.78,-11.66,-62.32,0.97,-0.16,0.09,1
12.82,-4.33,-60.42,0.97,-0.15,0.09,1
9.58,0.92,-58.47,0.98,-0.16,0.10,1
6.90,3.66,-56.82,0.98,-0.15,0.09,1
3.11,5.25,-54.57,0.99,-0.15,0.09,1
-0.18,5.62,-52.31,1.01,-0.14,0.14,1
3.60,1.83,-56.88,1.06,-0.12,0.21,1
15.32,-6.23,-66.41,1.01,-0.13,0.18,1
25.21,-11.90,-72.20,0.96,-0.16,0.15,1
29.66,-12.45,-72.63,0.91,-0.18,0.11,1
30.40,-8.67,-70.86,0.88,-0.21,0.10,1
29.66,-2.01,-69.03,0.88,-0.23,0.07,1
27.40,6.65,-67.38,0.89,-0.25,0.05,1
22.58,15.26,-66.28,0.89,-0.26,0.04,1
16.66,22.46,-65.19,0.91,-0.26,0.07,1
12.76,26.31,-64.03,0.96,-0.23,0.12,1
14.59,23.32,-65.00,0.99,-0.22,0.17,1
22.46,14.71,-69.70,0.99,-0.23,0.18,1
30.70,3.97,-73.67,0.93,-0.26,0.13,1
35.95,-0.55,-76.05,0.91,-0.28,0.11,1
39.25,-1.10,-76.42,0.87,-0.30,0.08,1
39.67,1.89,-76.66,0.83,-0.33,0.04,1
36.68,8.91,-75.01,0.84,-0.34,0.05,1
32.84,16.30,-72.88,0.86,-0.35,0.06,1
31.43,21.48,-71.23,0.86,-0.36,0.06,1
31.19,24.41,-70.74,0.86,-0.37,0.05,1
30.46,25.51,-70.92,0.87,-0.38,0.06,1
30.76,25.15,-72.94,0.87,-0.39,0.06,1
33.08,23.44,-76.66,0.86,-0.40,0.05,1
35.71,20.57,-80.93,0.84,-0.40,0.04,1
37.41,17.76,-83.92,0.81,-0.41,0.03,1
38.70,16.17,-85.75,0.76,-0.43,0.00,1
39.18,17.82,-84.53,0.72,-0.46,-0.03,1
36.56,22.22,-80.08,0.72,-0.48,-0.04,1
33.39,28.14,-75.74,0.72,-0.50,-0.04,1
31.37,33.51,-73.12,0.72,-0.50,-0.05,1
30.15,36.50,-69.58,0.73,-0.50,-0.03,1
30.70,36.01,-65.49,0.74,-0.49,-0.02,1
34.12,32.35,-63.54,0.73,-0.50,-0.03,1
38.45,28.02,-62.74,0.73,-0.52,-0.06,1
40.41,24.35,-63.48,0.73,-0.52,-0.08,1
40.16,21.36,-67.32,0.71,-0.55,-0.11,1
38.70,21.18,-72.57,0.65,-0.57,-0.16,1
34.24,25.82,-74.52,0.63,-0.58,-0.16,1
28.56,32.84,-72.51,0.65,-0.60,-0.15,1
24.48,38.57,-71.29,0.64,-0.63,-0.17,1
20.39,42.48,-71.35,0.62,-0.64,-0.19,1
15.38,46.14,-69.64,0.63,-0.62,-0.17,1
13.31,48.28,-64.45,0.66,-0.60,-0.12,1
17.76,46.02,-61.22,0.67,-0.60,-0.10,1
27.40,41.26,-62.19,0.64,-0.61,-0.13,1
35.46,37.41,-62.99,0.61,-0.63,-0.16,1
38.94,36.38,-61.16,0.59,-0.65,-0.17,1
41.32,36.62,-58.53,0.56,-0.66,-0.18,1
43.15,37.35,-55.30,0.53,-0.69,-0.21,1
42.30,38.51,-49.44,0.51,-0.69,-0.23,1
40.89,40.77,-42.05,0.49,-0.72,-0.26,1
38.51,44.98,-35.89,0.48,-0.73,-0.29,1
34.91,50.48,-31.80,0.54,-0.72,-0.29,1
32.59,52.55,-30.15,0.59,-0.72,-0.28,1
32.04,49.93,-32.84,0.63,-0.72,-0.29,1
31.56,43.40,-40.04,0.66,-0.71,-0.29,1
31.31,33.39,-49.56,0.65,-0.70,-0.29,1
31.74,23.38,-56.88,0.59,-0.71,-0.33,1
30.09,17.76,-58.72,0.53,-0.74,-0.34,1
26.55,17.03,-57.13,0.50,-0.75,-0.31,1
25.09,19.10,-55.11,0.47,-0.75,-0.29,1
26.12,22.22,-52.86,0.41,-0.75,-0.29,1
26.92,26.49,-49.13,0.39,-0.74,-0.28,1
27.28,30.64,-44.13,0.41,-0.73,-0.25,1
30.21,32.23,-41.20,0.41,-0.73,-0.24,1
34.00,32.96,-40.83,0.42,-0.73,-0.25,1
36.38,32.78,-40.22,0.45,-0.73,-0.25,1
38.45,30.15,-40.71,0.47,-0.73,-0.27,1
40.04,25.21,-43.70,0.47,-0.74,-0.28,1
41.20,20.81,-47.24,0.47,-0.75,-0.31,1
41.50,18.86,-50.42,0.47,-0.75,-0.32,1
41.93,18.25,-54.38,0.45,-0.76,-0.36,1
40.83,18.68,-58.65,0.43,-0.78,-0.40,1
37.11,20.87,-62.13,0.39,-0.78,-0.43,1
31.98,25.15,-63.29,0.38,-0.80,-0.45,1
26.98,29.91,-63.66,0.38,-0.79,-0.45,1
25.09,32.84,-63.90,0.36,-0.80,-0.44,1
24.41,34.24,-63.66,0.34,-0.79,-0.44,1
24.78,33.87,-62.26,0.35,-0.80,-0.42,1
26.92,30.82,-61.34,0.33,-0.80,-0.42,1
30.09,25.70,-60.97,0.31,-0.80,-0.44,1
32.53,20.51,-59.33,0.28,-0.81,-0.47,1
32.35,16.42,-56.46,0.26,-0.82,-0.49,1
30.58,14.40,-53.28,0.25,-0.85,-0.52,1
27.59,15.63,-51.70,0.23,-0.85,-0.54,1
23.62,18.80,-51.09,0.22,-0.86,-0.54,1
20.39,22.64,-51.21,0.22,-0.87,-0.54,1
18.62,26.31,-52.25,0.21,-0.87,-0.54,1
18.25,28.56,-52.92,0.20,-0.87,-0.54,1
19.59,28.20,-52.12,0.17,-0.88,-0.55,1
21.24,25.88,-49.87,0.13,-0.91,-0.57,1
22.46,23.07,-47.06,0.12,-0.93,-0.58,1
23.38,18.68,-45.23,0.12,-0.94,-0.60,1
23.62,11.11,-44.62,0.08,-0.97,-0.62,1
20.87,3.05,-42.79,0.05,-0.98,-0.63,1
17.33,-3.36,-39.18,0.04,-0.98,-0.60,1
16.30,-7.81,-35.89,0.02,-0.99,-0.58,1
16.85,-9.95,-32.90,-0.02,-0.98,-0.57,1
16.72,-9.58,-27.53,-0.03,-0.99,-0.55,1
16.85,-7.51,-21.73,-0.04,-0.99,-0.54,1
17.09,-3.48,-16.60,-0.05,-0.98,-0.54,1
16.78,2.08,-10.80,-0.06,-0.97,-0.53,1
16.72,8.24,-3.60,-0.04,-0.96,-0.52,1
17.27,12.70,4.64,-0.01,-0.96,-0.52,1
17.46,15.14,11.05,0.02,-0.96,-0.52,1
16.85,15.44,15.56,0.05,-0.95,-0.51,1
15.75,15.26,18.19,0.10,-0.93,-0.50,1
14.83,14.53,18.80,0.13,-0.93,-0.50,1
13.31,13.85,17.70,0.16,-0.91,-0.51,1
10.56,13.61,15.01,0.18,-0.91,-0.54,1
6.71,15.26,10.68,0.18,-0.91,-0.56,1
1.46,18.19,7.51,0.19,-0.89,-0.57,1
-2.69,20.57,6.04,0.19,-0.88,-0.57,1
-4.70,21.73,6.16,0.20,-0.90,-0.60,1
-6.47,20.69,6.53,0.20,-0.90,-0.62,1
-7.51,17.15,7.45,0.20,-0.90,-0.62,1
-6.77,9.83,9.03,0.19,-0.89,-0.62,1
-5.07,1.04,11.72,0.17,-0.90,-0.62,1
-3.97,-5.86,14.22,0.15,-0.90,-0.61,1
-2.93,-9.58,16.85,0.13,-0.89,-0.60,1
-1.89,-10.50,18.92,0.12,-0.90,-0.60,1
-2.38,-9.16,20.87,0.10,-0.91,-0.62,1
-5.86,-5.74,23.01,0.08,-0.92,-0.63,1
-10.80,0.31,25.15,0.07,-0.93,-0.64,1
-16.05,8.54,26.49,0.06,-0.94,-0.65,1
-21.12,17.15,27.65,0.06,-0.95,-0.65,1
-25.82,24.17,28.87,0.08,-0.95,-0.63,1
-29.48,27.22,30.27,0.09,-0.94,-0.60,1
-31.31,25.82,32.53,0.08,-0.94,-0.59,1
-31.25,21.42,34.97,0.06,-0.93,-0.58,1
-30.03,15.93,38.88,0.05,-0.95,-0.57,1
-29.17,11.47,43.27,0.05,-0.96,-0.56,1
-29.30,9.40,47.42,0.05,-0.95,-0.57,1
-29.97,9.95,50.54,0.06,-0.95,-0.57,1
-32.29,11.78,52.25,0.06,-0.93,-0.58,1
-36.01,13.73,54.75,0.07,-0.92,-0.57,1
-41.26,15.32,58.72,0.08,-0.92,-0.54,1
-45.78,16.97,62.19,0.11,-0.90,-0.51,1
-48.22,18.68,65.00,0.14,-0.89,-0.49,1
-48.46,19.23,67.32,0.17,-0.87,-0.47,1
-47.24,16.78,69.27,0.18,-0.85,-0.45,1
-44.92,11.78,72.14,0.20,-0.83,-0.42,1
-41.44,5.55,75.62,0.21,-0.83,-0.41,1
-37.05,-0.12,78.74,0.22,-0.82,-0.40,1
-33.87,-5.49,82.21,0.23,-0.82,-0.41,1
-32.10,-8.97,85.57,0.23,-0.81,-0.42,1
-32.29,-9.77,88.01,0.25,-0.81,-0.43,1
-33.87,-9.03,89.05,0.26,-0.80,-0.44,1
-37.05,-7.57,89.11,0.28,-0.80,-0.44,1
-41.69,-5.49,88.93,0.31,-0.79,-0.43,1
-45.84,-3.97,87.71,0.34,-0.77,-0.40,1
-48.16,-5.43,87.16,0.36,-0.75,-0.38,1
-48.71,-8.79,87.52,0.36,-0.73,-0.36,1
-46.88,-12.63,88.20,0.38,-0.73,-0.33,1
-44.37,-16.05,89.54,0.39,-0.72,-0.32,1
-42.30,-17.27,91.06,0.41,-0.72,-0.31,1
-41.32,-17.46,92.10,0.45,-0.73,-0.29,1
-42.85,-17.76,91.37,0.45,-0.69,-0.32,1
-45.10,-15.20,90.45,0.47,-0.68,-0.32,1
-46.63,-10.50,90.64,0.49,-0.66,-0.30,1
-47.12,-5.74,90.03,0.50,-0.63,-0.29,1
-46.33,-0.31,91.61,0.48,-0.63,-0.29,1
-46.69,7.02,95.70,0.48,-0.63,-0.27,1
-46.81,15.63,100.65,0.50,-0.63,-0.26,1
-45.23,23.68,104.43,0.54,-0.63,-0.24,1
-41.14,30.03,103.94,0.56,-0.62,-0.23,1
-37.72,33.26,101.81,0.57,-0.59,-0.23,1
-35.58,33.02,102.60,0.61,-0.55,-0.20,1
-32.78,26.86,105.22,0.64,-0.51,-0.17,1
-26.92,15.14,108.28,0.68,-0.49,-0.16,1
-19.35,1.59,110.47,0.72,-0.49,-0.18,1
-13.67,-10.56,111.15,0.70,-0.49,-0.21,1
-10.68,-16.42,110.41,0.70,-0.49,-0.23,1
-10.25,-16.05,107.85,0.72,-0.49,-0.24,1
-10.62,-12.63,103.82,0.71,-0.47,-0.25,1
-10.62,-6.47,99.79,0.69,-0.46,-0.26,1
-11.84,1.95,97.29,0.69,-0.43,-0.25,1
-13.55,7.75,96.86,0.72,-0.40,-0.22,1
-12.57,7.75,98.45,0.76,-0.37,-0.18,1
-8.54,2.44,100.34,0.80,-0.37,-0.16,1
-4.03,-5.13,100.83,0.81,-0.38,-0.18,1
-1.28,-11.17,100.16,0.82,-0.38,-0.20,1
0.31,-14.10,99.12,0.83,-0.37,-0.22,1
0.43,-14.04,97.53,0.83,-0.37,-0.24,1
-0.31,-12.15,94.30,0.84,-0.35,-0.23,1
-0.73,-10.44,90.64,0.86,-0.32,-0.20,1
1.04,-10.86,88.44,0.85,-0.29,-0.17,1
4.64,-14.40,89.72,0.85,-0.29,-0.17,1
7.20,-19.78,93.63,0.87,-0.27,-0.15,1
9.52,-28.93,97.53,0.91,-0.24,-0.11,1
15.63,-42.66,101.75,0.93,-0.23,-0.09,1
23.93,-58.35,105.96,0.91,-0.23,-0.12,1
30.21,-70.13,109.56,0.88,-0.26,-0.20,1
28.87,-71.11,111.51,0.86,-0.30,-0.28,1
18.80,-58.23,108.89,0.87,-0.32,-0.34,1
2.56,-34.18,100.22,0.89,-0.30,-0.34,1
-14.04,-7.02,87.46,0.93,-0.25,-0.28,1
-26.43,13.18,74.58,0.97,-0.19,-0.21,1
-32.29,21.67,64.33,0.98,-0.12,-0.12,1
-29.79,18.49,59.39,0.98,-0.10,-0.07,1
-22.95,8.12,59.69,0.95,-0.10,-0.05,1
-15.20,-2.93,62.26,0.92,-0.11,-0.06,1
-7.81,-11.11,66.41,0.90,-0.14,-0.09,1
-2.20,-16.54,71.53,0.91,-0.15,-0.12,1
0.92,-20.32,76.60,0.92,-0.14,-0.15,1
2.99,-22.46,80.63,0.94,-0.12,-0.18,1
3.66,-20.45,81.79,0.94,-0.13,-0.22,1
1.04,-13.67,80.14,0.94,-0.14,-0.24,1
-5.19,-4.46,75.56,0.95,-0.12,-0.23,1
-10.93,5.92,69.21,0.96,-0.11,-0.22,1
-15.50,14.22,61.58,0.95,-0.08,-0.20,1
-18.62,18.49,54.75,0.94,-0.05,-0.17,1
-18.86,17.52,53.04,0.91,-0.01,-0.12,1
-16.05,12.45,56.58,0.89,-0.00,-0.10,1
-11.17,7.02,62.62,0.89,-0.00,-0.10,1
-5.80,2.32,68.24,0.88,-0.01,-0.11,1
-2.38,0.00,72.63,0.87,-0.00,-0.15,1
-1.71,2.87,75.87,0.89,-0.01,-0.21,1
-3.78,11.17,77.88,0.92,-0.00,-0.25,1
-8.06,19.65,78.00,0.97,0.01,-0.26,1
-11.90,23.25,75.50,1.00,0.03,-0.25,1
-14.28,22.64,72.69,1.00,0.04,-0.24,1
-14.95,19.96,70.07,1.00,0.05,-0.20,1
-13.06,15.01,67.99,0.99,0.08,-0.16,1
-8.24,6.41,67.44,0.97,0.10,-0.13,1
-2.20,-3.66,69.70,0.94,0.14,-0.11,1
3.97,-12.02,75.07,0.91,0.16,-0.12,1
6.96,-14.40,80.75,0.91,0.16,-0.16,1
5.13,-6.71,83.98,0.95,0.15,-0.20,1
0.49,8.12,82.40,0.99,0.16,-0.22,1
-5.49,24.23,75.87,1.04,0.16,-0.24,1
-11.60,37.29,67.50,1.05,0.17,-0.23,1
-16.60,47.12,59.57,1.04,0.18,-0.21,1
-19.41,52.80,53.65,1.05,0.21,-0.18,1
-18.86,53.83,49.62,1.04,0.23,-0.14,1
-15.32,50.17,48.03,1.03,0.25,-0.10,1
-9.83,43.40,49.80,1.00,0.26,-0.13,1
-5.07,39.98,54.69,1.01,0.22,-0.22,1
-4.70,44.80,58.35,1.07,0.20,-0.31,1
-8.24,53.89,56.34,1.12,0.20,-0.36,1
-13.67,60.30,49.87,1.16,0.21,-0.38,1
-17.46,62.19,42.97,1.17,0.22,-0.37,1
-18.68,58.96,38.51,1.16,0.25,-0.36,1
-16.97,51.82,36.99,1.16,0.27,-0.35,1
-12.94,42.85,36.80,1.16,0.28,-0.32,1
-6.96,32.17,37.17,1.17,0.31,-0.30,1
-0.18,19.53,37.84,1.16,0.32,-0.29,1
6.10,7.02,38.76,1.14,0.32,-0.31,1
10.07,-1.65,38.88,1.12,0.32,-0.33,1
11.47,-5.55,37.72,1.10,0.30,-0.36,1
9.70,-3.60,34.79,1.07,0.28,-0.40,1
4.46,2.87,30.58,1.04,0.28,-0.41,1
-1.83,10.38,24.96,1.03,0.28,-0.40,1
-6.90,17.09,18.92,1.00,0.28,-0.38,1
-10.62,21.42,14.22,0.97,0.27,-0.35,1
-12.15,22.52,11.96,0.94,0.28,-0.30,1
-11.17,20.26,11.90,0.90,0.28,-0.28,1
-8.12,17.46,13.49,0.88,0.27,-0.25,1
-4.39,15.32,16.11,0.86,0.27,-0.24,1
-0.79,13.73,18.74,0.85,0.27,-0.23,1
2.75,13.67,21.06,0.84,0.27,-0.24,1
6.10,16.11,22.77,0.87,0.27,-0.29,1
9.16,20.94,22.28,0.89,0.25,-0.34,1
9.16,25.94,19.96,0.91,0.25,-0.39,1
5.00,28.87,16.85,0.96,0.24,-0.42,1
-0.55,28.56,12.82,0.97,0.24,-0.42,1
-4.70,27.65,8.79,0.98,0.26,-0.40,1
-5.86,25.27,7.26,0.97,0.28,-0.38,1
-4.58,20.63,8.18,0.99,0.29,-0.37,1
-1.95,13.79,10.13,0.99,0.30,-0.36,1
1.89,5.43,11.23,0.99,0.31,-0.37,1
5.07,-1.65,11.60,1.00,0.32,-0.38,1
8.06,-7.14,10.86,1.01,0.31,-0.38,1
11.29,-10.25,7.51,0.99,0.30,-0.40,1
11.96,-11.84,2.50,0.98,0.31,-0.42,1
10.19,-10.25,-0.61,0.96,0.30,-0.41,1
8.97,-7.45,-2.14,0.94,0.29,-0.38,1
8.18,-3.91,-2.56,0.92,0.29,-0.37,1
8.18,-0.67,-2.38,0.91,0.29,-0.36,1
8.18,1.16,-1.83,0.89,0.29,-0.35,1
8.42,1.95,-0.85,0.88,0.28,-0.35,1
9.16,2.44,0.37,0.87,0.26,-0.35,1
10.38,2.38,0.67,0.88,0.26,-0.34,1
12.08,-0.06,-1.04,0.88,0.24,-0.35,1
12.70,-3.85,-3.60,0.88,0.24,-0.36,1
11.78,-6.84,-5.74,0.86,0.24,-0.37,1
10.38,-7.51,-6.59,0.85,0.24,-0.39,1
7.69,-7.20,-7.26,0.86,0.23,-0.39,1
4.94,-7.63,-8.00,0.85,0.23,-0.38,0
3.11,-7.45,-8.73,0.85,0.24,-0.37,0
1.89,-6.29,-7.69,0.85,0.23,-0.36,0
1.10,-5.37,-5.13,0.85,0.25,-0.35,0
0.73,-5.49,-2.56,0.85,0.26,-0.35,0
3.30,-5.37,-3.23,0.86,0.24,-0.34,0
5.92,-4.27,-4.33,0.87,0.25,-0.35,0
6.53,-3.48,-3.60,0.87,0.25,-0.34,0
7.26,-1.77,-1.83,0.87,0.24,-0.32,0
8.24,-0.06,-0.12,0.87,0.26,-0.31,0
10.62,1.10,1.10,0.87,0.25,-0.32,0
12.45,1.95,2.38,0.87,0.26,-0.36,0
10.19,3.60,4.03,0.87,0.25,-0.40,0
4.52,5.80,5.19,0.89,0.25,-0.39,0
-0.37,8.00,5.49,0.89,0.27,-0.38,0
-2.44,9.64,4.52,0.91,0.26,-0.37,0
-3.23,9.16,3.54,0.92,0.26,-0.35,0
-3.36,6.84,2.38,0.92,0.27,-0.34,0
-2.08,4.39,1.22,0.91,0.27,-0.34,0
-0.37,3.11,1.04,0.90,0.26,-0.34,0
0.55,3.30,1.46,0.90,0.27,-0.34,0
1.53,3.36,1.53,0.89,0.26,-0.34,0
2.81,3.05,2.08,0.90,0.27,-0.34,0
3.85,1.65,2.26,0.89,0.26,-0.35,0
4.33,1.16,1.83,0.87,0.26,-0.36,0
3.91,2.20,0.31,0.86,0.26,-0.38,0
2.38,4.52,-0.43,0.86,0.25,-0.37,0
0.24,7.14,-0.18,0.85,0.25,-0.35,0
-0.92,8.91,0.06,0.86,0.26,-0.33,0
0.43,8.85,-1.04,0.88,0.27,-0.32,0
3.54,6.90,-2.26,0.88,0.26,-0.34,0
5.55,5.13,-3.30,0.87,0.26,-0.35,0
6.23,4.46,-4.09,0.88,0.25,-0.36,0
5.68,4.27,-5.43,0.88,0.25,-0.37,0
5.31,4.82,-6.29,0.86,0.24,-0.39,0
3.11,6.41,-6.41,0.86,0.23,-0.40,0
-0.49,8.67,-6.23,0.87,0.24,-0.38,0
-3.17,9.83,-6.10,0.87,0.25,-0.37,0
-4.15,10.07,-6.04,0.87,0.26,-0.37,0
-4.82,10.62,-4.88,0.87,0.25,-0.37,0
-5.31,11.29,-3.36,0.88,0.26,-0.36,0
-4.82,11.35,-3.23,0.89,0.25,-0.36,0
-3.97,10.86,-4.03,0.89,0.25,-0.36,0
-3.11,10.38,-5.25,0.89,0.26,-0.36,0
-1.59,10.86,-6.29,0.90,0.25,-0.36,0
0.61,12.15,-7.57,0.90,0.25,-0.36,0
3.11,12.63,-9.28,0.89,0.25,-0.38,0
3.42,13.37,-9.95,0.88,0.24,-0.40,0
1.16,14.28,-9.03,0.87,0.24,-0.41,0
-1.53,15.26,-7.08,0.87,0.24,-0.42,0
-3.97,15.75,-5.43,0.88,0.23,-0.40,0
-5.43,14.65,-4.58,0.88,0.23,-0.39,0
-4.82,13.18,-5.25,0.87,0.23,-0.39,0
-3.72,11.54,-5.92,0.86,0.22,-0.39,0
-3.42,9.95,-5.43,0.86,0.22,-0.38,0
-2.93,7.32,-4.39,0.86,0.23,-0.37,0
-1.59,3.54,-3.78,0.85,0.23,-0.38,0
-0.18,1.16,-2.75,0.84,0.23,-0.38,0
1.46,0.55,-0.67,0.84,0.23,-0.38,0
1.71,2.01,1.40,0.85,0.23,-0.39,0
1.40,3.97,2.50,0.86,0.23,-0.40,0
0.61,6.29,2.26,0.86,0.23,-0.41,0
-0.92,8.42,1.46,0.87,0.22,-0.41,0
-2.32,9.46,0.24,0.88,0.24,-0.40,0
-2.20,9.95,-1.28,0.88,0.25,-0.38,0
-0.37,8.91,-2.44,0.88,0.24,-0.38,0
1.40,7.39,-2.56,0.88,0.24,-0.38,0
2.44,5.68,-2.62,0.88,0.24,-0.38,0
3.78,4.58,-2.69,0.88,0.24,-0.37,0
5.31,3.97,-2.56,0.88,0.25,-0.38,0
6.53,3.30,-1.53,0.88,0.23,-0.40,0
5.07,3.17,0.31,0.89,0.23,-0.41,0
2.50,2.87,0.61,0.90,0.23,-0.40,0
1.40,2.32,-1.46,0.90,0.23,-0.40,0
1.34,2.38,-3.54,0.89,0.23,-0.40,0
0.92,3.17,-4.46,0.89,0.22,-0.38,0
1.04,3.36,-5.49,0.88,0.23,-0.38,0
1.34,3.17,-5.68,0.87,0.23,-0.37,0
2.08,3.11,-5.07,0.86,0.23,-0.37,0
2.99,3.30,-4.64,0.85,0.22,-0.38,0
3.11,4.09,-3.60,0.85,0.23,-0.38,0
3.78,4.70,-2.56,0.85,0.24,-0.37,0
6.29,4.76,-2.01,0.86,0.23,-0.36,0
9.64,4.15,-2.50,0.88,0.23,-0.35,0
14.59,3.42,-4.03,0.86,0.23,-0.36,0
20.32,5.00,-5.13,0.82,0.23,-0.40,0
21.73,9.64,-5.00,0.87,0.22,-0.40,0
21.12,12.88,-6.47,0.84,0.23,-0.43,0
19.04,16.11,-8.79,0.87,0.22,-0.46,0
12.45,16.42,-9.22,0.94,0.24,-0.45,0
6.96,8.12,-9.83,0.94,0.26,-0.50,1
0.73,-1.77,-10.31,0.92,0.19,-0.55,1
-9.09,-5.43,-10.80,0.97,0.21,-0.50,1
-13.18,-7.02,-14.53,0.95,0.22,-0.44,1
-10.13,-4.27,-20.94,0.96,0.22,-0.39,1
-5.31,0.18,-27.04,0.93,0.23,-0.37,1
-1.16,4.76,-30.27,0.91,0.25,-0.34,1
4.27,10.01,-29.97,0.87,0.26,-0.34,1
8.42,15.26,-25.21,0.89,0.27,-0.33,1
12.02,18.31,-18.80,0.92,0.29,-0.32,1
16.54,16.97,-15.93,0.92,0.28,-0.38,1
17.33,16.24,-14.59,0.93,0.25,-0.43,1
12.63,20.75,-13.00,0.93,0.24,-0.44,1
6.23,29.66,-12.51,0.97,0.24,-0.43,1
1.83,38.64,-13.73,1.03,0.23,-0.44,1
-1.83,41.56,-17.15,1.09,0.24,-0.46,1
-4.76,37.96,-22.64,1.15,0.22,-0.49,1
-5.37,27.71,-26.73,1.18,0.26,-0.50,1
-1.71,9.89,-24.90,1.20,0.26,-0.51,1
2.14,-13.79,-21.00,1.22,0.26,-0.53,1
5.25,-37.35,-17.09,1.22,0.28,-0.55,1
7.93,-55.48,-14.77,1.21,0.30,-0.56,1
10.44,-66.10,-15.44,1.19,0.32,-0.55,1
12.08,-69.76,-17.82,1.18,0.30,-0.55,1
9.03,-69.52,-21.06,1.18,0.32,-0.53,1
3.48,-68.30,-25.21,1.15,0.34,-0.48,1
-0.43,-64.82,-30.21,1.16,0.34,-0.43,1
0.49,-59.57,-38.70,1.17,0.34,-0.40,1
3.17,-55.05,-51.57,1.12,0.29,-0.41,1
2.87,-48.58,-66.83,1.11,0.29,-0.41,1
1.10,-40.71,-74.22,1.08,0.25,-0.43,1
-2.81,-32.23,-78.61,1.09,0.27,-0.39,1
-4.33,-29.91,-80.87,1.08,0.26,-0.36,1
-4.15,-31.13,-82.28,1.07,0.27,-0.36,1
-3.66,-32.23,-80.57,1.06,0.25,-0.35,1
-4.03,-32.84,-78.06,1.04,0.24,-0.33,1
-4.64,-32.47,-75.93,1.02,0.23,-0.33,1
-5.68,-29.97,-72.81,1.00,0.21,-0.32,1
-5.92,-25.45,-70.56,1.02,0.20,-0.30,1
-5.62,-21.91,-71.53,1.04,0.21,-0.26,1
-2.75,-21.61,-77.58,1.05,0.23,-0.23,1
2.75,-22.83,-85.94,1.03,0.22,-0.25,1
6.04,-21.55,-91.25,1.00,0.17,-0.27,1
4.70,-16.66,-95.89,0.99,0.17,-0.28,1
1.65,-9.64,-99.85,0.99,0.12,-0.28,1
-2.50,-4.39,-106.63,1.00,0.12,-0.26,1
-4.09,-2.93,-111.69,0.98,0.12,-0.27,1
-4.58,-3.42,-112.73,0.96,0.09,-0.27,1
-5.00,-4.94,-111.57,0.94,0.07,-0.26,1
-4.39,-6.04,-110.11,0.91,0.04,-0.25,1
-2.87,-6.23,-108.95,0.91,0.04,-0.21,1
3.78,-6.90,-109.13,0.93,0.01,-0.16,1
12.39,-9.70,-112.73,0.93,-0.00,-0.16,1
20.32,-13.85,-119.08,0.87,0.01,-0.20,1
27.71,-15.87,-123.23,0.81,-0.02,-0.22,1
31.80,-13.98,-124.08,0.77,-0.04,-0.24,1
33.26,-8.73,-122.50,0.73,-0.07,-0.29,1
31.62,0.98,-118.90,0.70,-0.13,-0.34,1
25.88,13.18,-114.44,0.74,-0.15,-0.34,1
19.35,21.67,-111.63,0.78,-0.17,-0.32,1
15.87,25.33,-112.67,0.79,-0.18,-0.31,1
16.66,25.70,-115.84,0.84,-0.15,-0.24,1
23.19,17.70,-115.66,0.80,-0.16,-0.23,1
32.65,8.67,-114.93,0.78,-0.15,-0.23,1
42.66,0.18,-112.30,0.72,-0.19,-0.28,1
49.68,-2.75,-107.97,0.65,-0.27,-0.32,1
49.62,0.49,-104.37,0.62,-0.30,-0.33,1
46.69,6.90,-101.68,0.59,-0.31,-0.33,1
44.74,14.65,-101.32,0.56,-0.34,-0.33,1
42.97,22.46,-101.32,0.52,-0.36,-0.34,1
40.04,29.42,-98.45,0.53,-0.40,-0.33,1
36.50,30.88,-94.73,0.55,-0.43,-0.33,1
33.75,26.92,-94.85,0.56,-0.44,-0.30,1
33.81,18.74,-95.64,0.57,-0.44,-0.27,1
37.78,6.65,-93.99,0.54,-0.46,-0.28,1
43.03,-2.99,-91.31,0.53,-0.49,-0.28,1
48.03,-7.87,-89.36,0.55,-0.49,-0.25,1
55.73,-13.12,-87.77,0.54,-0.48,-0.27,1
63.05,-18.98,-84.35,0.51,-0.51,-0.33,1
65.55,-20.81,-78.67,0.52,-0.57,-0.39,1
62.26,-17.94,-75.01,0.54,-0.62,-0.45,1
54.57,-10.99,-76.29,0.56,-0.64,-0.49,1
44.19,-4.21,-80.81,0.57,-0.63,-0.52,1
33.63,2.62,-84.59,0.56,-0.63,-0.52,1
23.80,9.52,-86.24,0.56,-0.63,-0.51,1
16.60,15.63,-86.85,0.59,-0.60,-0.46,1
13.98,18.49,-87.89,0.60,-0.60,-0.43,1
15.63,17.46,-88.68,0.59,-0.59,-0.43,1
18.37,14.40,-87.71,0.58,-0.57,-0.40,1
22.89,9.22,-83.62,0.60,-0.55,-0.38,1
29.85,1.40,-79.96,0.60,-0.59,-0.39,1
35.71,-6.41,-78.25,0.56,-0.62,-0.44,1
35.83,-10.44,-77.09,0.53,-0.63,-0.45,1
33.69,-10.44,-75.74,0.51,-0.63,-0.45,1
32.23,-7.26,-74.71,0.48,-0.65,-0.45,1
30.82,-1.53,-74.22,0.48,-0.65,-0.43,1
29.79,3.17,-72.33,0.48,-0.64,-0.41,1
30.52,5.13,-70.25,0.49,-0.66,-0.42,1
30.03,5.55,-70.37,0.48,-0.67,-0.43,1
28.32,5.43,-71.59,0.47,-0.66,-0.42,1
28.02,5.80,-72.08,0.47,-0.67,-0.40,1
28.87,5.74,-73.06,0.46,-0.69,-0.41,1
29.05,5.74,-74.65,0.43,-0.70,-0.42,1
27.83,7.39,-74.52,0.40,-0.71,-0.45,1
25.82,10.74,-72.63,0.39,-0.73,-0.47,1
22.52,13.55,-71.53,0.37,-0.75,-0.50,1
18.98,16.85,-71.17,0.35,-0.75,-0.53,1
15.99,21.12,-69.82,0.35,-0.78,-0.53,1
11.84,24.78,-67.75,0.34,-0.77,-0.53,1
9.03,25.27,-64.88,0.35,-0.77,-0.51,1
9.46,22.09,-61.65,0.35,-0.77,-0.50,1
12.70,16.97,-59.57,0.37,-0.77,-0.47,1
19.65,8.85,-57.92,0.37,-0.77,-0.46,1
27.47,-2.01,-56.21,0.33,-0.78,-0.49,1
33.57,-10.74,-53.96,0.30,-0.80,-0.52,1
35.89,-15.50,-52.00,0.28,-0.82,-0.54,1
34.85,-15.56,-51.70,0.26,-0.82,-0.55,1
32.04,-13.24,-51.51,0.24,-0.81,-0.56,1
28.50,-10.68,-49.32,0.24,-0.80,-0.55,1
25.45,-7.39,-45.23,0.26,-0.80,-0.53,1
24.90,-3.85,-41.93,0.27,-0.79,-0.52,1
25.63,-1.22,-38.57,0.31,-0.78,-0.49,1
28.63,-2.44,-34.61,0.33,-0.78,-0.49,1
32.53,-6.71,-32.53,0.35,-0.78,-0.52,1
37.48,-11.54,-33.45,0.36,-0.79,-0.54,1
42.05,-17.09,-36.74,0.34,-0.82,-0.58,1
44.31,-22.03,-39.79,0.29,-0.85,-0.64,1
41.81,-24.66,-39.55,0.23,-0.88,-0.68,1
34.18,-23.93,-36.38,0.18,-0.89,-0.70,1
24.23,-19.41,-31.92,0.15,-0.95,-0.69,1
14.89,-13.18,-30.09,0.14,-0.95,-0.67,1
7.39,-7.26,-29.97,0.12,-0.95,-0.65,1
3.11,-3.78,-28.87,0.11,-0.95,-0.62,1
2.14,-2.62,-26.18,0.09,-0.95,-0.60,1
4.15,-2.75,-22.03,0.09,-0.94,-0.59,1
7.75,-4.46,-16.91,0.10,-0.94,-0.58,1
12.08,-7.26,-12.21,0.11,-0.92,-0.57,1
16.05,-11.35,-7.57,0.15,-0.91,-0.57,1
19.10,-16.78,-4.64,0.18,-0.89,-0.57,1
20.32,-20.94,-2.62,0.19,-0.89,-0.59,1
17.09,-20.94,-0.79,0.20,-0.90,-0.61,1
9.16,-15.44,0.37,0.22,-0.89,-0.61,1
-1.40,-4.58,-0.18,0.25,-0.86,-0.59,1
-11.05,8.54,-1.28,0.29,-0.84,-0.57,1
-18.37,19.53,-2.56,0.32,-0.82,-0.55,1
-23.44,25.45,-3.36,0.36,-0.79,-0.51,1
-23.99,25.45,-4.46,0.39,-0.78,-0.47,1
-20.08,20.02,-5.49,0.39,-0.77,-0.46,1
-14.34,11.41,-5.19,0.40,-0.75,-0.45,1
-6.90,1.77,-3.72,0.39,-0.76,-0.47,1
0.49,-6.41,-2.62,0.35,-0.79,-0.51,1
4.88,-10.56,-1.53,0.31,-0.81,-0.55,1
5.49,-10.25,0.06,0.27,-0.85,-0.60,1
1.59,-5.07,1.04,0.23,-0.88,-0.66,1
-6.53,4.39,1.34,0.20,-0.91,-0.70,1
-16.11,15.08,1.89,0.17,-0.95,-0.72,1
-26.37,25.33,2.01,0.14,-0.97,-0.73,1
-36.13,33.75,2.26,0.13,-0.98,-0.72,1
-43.21,37.78,2.99,0.14,-0.96,-0.67,1
-45.04,34.48,4.39,0.15,-0.93,-0.61,1
-40.47,23.13,8.00,0.12,-0.94,-0.57,1
-33.20,10.07,14.16,0.09,-0.95,-0.56,1
-26.61,-0.43,22.03,0.07,-0.96,-0.57,1
-22.16,-5.68,29.79,0.06,-0.96,-0.57,1
-20.39,-6.10,35.95,0.06,-0.96,-0.58,1
-20.81,-3.05,40.95,0.05,-0.98,-0.61,1
-25.45,4.03,45.65,0.07,-0.99,-0.63,1
-33.45,13.24,48.52,0.08,-0.99,-0.63,1
-43.33,23.32,49.19,0.09,-0.99,-0.63,1
-54.32,33.81,49.07,0.10,-0.98,-0.63,1
-65.25,42.85,48.71,0.13,-0.97,-0.60,1
-74.95,47.91,48.46,0.16,-0.94,-0.56,1
-80.14,47.00,48.10,0.19,-0.90,-0.50,1
-78.80,40.41,49.62,0.21,-0.86,-0.44,1
-71.41,29.17,53.28,0.22,-0.84,-0.40,1
-59.20,15.01,59.69,0.22,-0.85,-0.39,1
-47.42,1.65,66.96,0.22,-0.85,-0.41,1
-38.82,-8.30,74.16,0.21,-0.87,-0.42,1
-34.30,-13.61,80.14,0.20,-0.88,-0.45,1
-33.75,-13.79,84.35,0.20,-0.88,-0.48,1
-37.84,-10.80,86.98,0.21,-0.86,-0.48,1
-44.37,-7.26,87.77,0.22,-0.84,-0.47,1
-51.21,-3.11,87.59,0.25,-0.81,-0.44,1
-56.27,-0.06,87.10,0.31,-0.76,-0.37,1
-56.58,-2.56,87.89,0.38,-0.72,-0.31,1
-50.72,-11.60,89.54,0.42,-0.71,-0.28,1
-41.99,-24.35,90.94,0.43,-0.71,-0.27,1
-34.12,-35.10,91.80,0.43,-0.72,-0.30,1
-29.85,-40.22,92.59,0.41,-0.73,-0.34,1
-30.21,-38.57,93.57,0.39,-0.74,-0.38,1
-35.16,-31.56,93.57,0.39,-0.74,-0.41,1
-44.19,-20.57,91.43,0.40,-0.72,-0.42,1
-54.93,-8.18,87.52,0.43,-0.69,-0.39,1
-64.03,3.17,84.29,0.47,-0.66,-0.35,1
-70.50,11.29,82.70,0.53,-0.61,-0.26,1
-71.35,12.21,83.19,0.63,-0.55,-0.16,1
-63.23,3.36,85.94,0.69,-0.52,-0.10,1
-48.95,-12.02,89.05,0.71,-0.53,-0.08,1
-34.12,-27.04,92.10,0.71,-0.55,-0.10,1
-22.34,-37.60,94.60,0.71,-0.57,-0.15,1
-16.54,-42.36,95.58,0.69,-0.58,-0.20,1
-16.78,-41.50,93.69,0.68,-0.56,-0.22,1
-20.32,-36.62,90.82,0.67,-0.52,-0.20,1
-23.13,-30.76,90.21,0.73,-0.46,-0.11,1
-20.32,-31.31,93.20,0.81,-0.40,-0.01,1
-9.09,-43.52,97.78,0.86,-0.39,0.05,1
6.90,-63.48,101.99,0.87,-0.41,0.04,1
21.12,-83.68,104.98,0.83,-0.46,-0.03,1
25.94,-94.91,105.77,0.76,-0.53,-0.18,1
15.32,-86.67,101.75,0.68,-0.57,-0.30,1
-7.02,-56.46,91.49,0.67,-0.57,-0.34,1
-33.39,-16.36,77.09,0.71,-0.53,-0.30,1
-55.79,18.25,62.26,0.79,-0.43,-0.16,1
-65.73,34.30,53.59,0.86,-0.31,0.00,1
-58.41,28.20,54.38,0.91,-0.29,0.09,1
-41.63,9.16,60.67,0.89,-0.34,0.07,1
-26.00,-7.69,65.98,0.86,-0.38,0.02,1
-15.75,-16.05,69.15,0.83,-0.42,-0.03,1
-10.68,-17.64,69.70,0.81,-0.44,-0.08,1
-9.52,-15.01,68.85,0.79,-0.43,-0.13,1
-11.29,-11.17,67.57,0.79,-0.40,-0.14,1
-13.55,-9.22,67.81,0.81,-0.35,-0.11,1
-12.39,-11.54,70.37,0.84,-0.34,-0.09,1
-8.30,-17.58,73.49,0.85,-0.36,-0.11,1
-6.59,-21.48,75.26,0.85,-0.38,-0.14,1
-8.85,-20.14,75.56,0.85,-0.39,-0.17,1
-15.08,-14.04,74.22,0.85,-0.39,-0.18,1
-22.52,-5.74,70.62,0.84,-0.39,-0.18,1
-29.54,4.39,65.98,0.82,-0.37,-0.17,1
-36.01,15.20,61.58,0.82,-0.34,-0.14,1
-39.61,23.19,59.63,0.82,-0.31,-0.11,1
-40.04,26.73,59.81,0.82,-0.27,-0.07,1
-35.46,25.70,63.05,0.84,-0.25,-0.05,1
-28.50,19.90,69.64,0.88,-0.25,-0.05,1
-21.79,10.07,75.81,0.90,-0.24,-0.06,1
-15.75,-0.31,79.41,0.91,-0.25,-0.09,1
-12.15,-5.86,81.05,0.93,-0.26,-0.13,1
-12.15,-6.35,80.63,0.92,-0.27,-0.17,1
-15.26,-0.67,77.33,0.90,-0.27,-0.19,1
-21.61,11.05,71.41,0.91,-0.24,-0.21,1
-27.71,25.45,63.72,0.91,-0.22,-0.18,1
-31.56,38.88,56.27,0.93,-0.17,-0.14,1
-33.39,47.61,51.76,0.96,-0.12,-0.10,1
-31.37,47.97,50.72,1.00,-0.08,-0.04,1
-25.94,40.71,53.28,1.02,-0.05,-0.01,1
-16.97,28.44,59.94,1.03,-0.06,-0.01,1
-9.70,16.60,66.71,1.04,-0.09,-0.05,1
-5.98,8.06,69.95,1.04,-0.10,-0.09,1
-5.55,4.15,68.66,1.03,-0.12,-0.14,1
-8.54,6.04,63.96,0.99,-0.13,-0.19,1
-14.71,15.08,57.62,0.98,-0.13,-0.20,1
-22.03,27.95,51.82,0.97,-0.11,-0.17,1
-26.67,38.39,47.18,0.98,-0.11,-0.14,1
-28.14,43.33,42.36,0.97,-0.09,-0.11,1
-26.73,42.72,39.25,0.94,-0.07,-0.08,1
-23.93,38.39,40.95,0.92,-0.04,-0.05,1
-18.80,30.88,47.24,0.92,-0.02,-0.03,1
-12.02,21.79,54.57,0.92,-0.01,-0.04,1
-5.55,13.92,61.10,0.92,-0.02,-0.09,1
-1.71,11.11,64.70,0.93,-0.05,-0.14,1
-2.26,14.77,65.61,0.94,-0.06,-0.20,1
-5.80,22.95,63.23,0.96,-0.07,-0.23,1
-9.83,33.33,58.53,0.98,-0.06,-0.24,1
-13.31,41.99,52.98,0.99,-0.04,-0.24,1
-15.63,46.20,48.52,1.00,-0.02,-0.22,1
-15.81,44.49,46.81,0.98,0.00,-0.20,1
-13.55,38.45,47.85,0.97,0.01,-0.19,1
-10.50,30.27,51.39,0.96,0.02,-0.19,1
-7.45,22.03,56.52,0.94,0.03,-0.19,1
-4.64,16.17,61.89,0.94,0.03,-0.20,1
-2.81,14.10,65.67,0.95,0.04,-0.21,1
-1.59,16.11,67.38,0.93,0.02,-0.27,1
-1.83,23.01,65.43,0.96,0.04,-0.28,1
-2.62,30.46,62.93,0.94,0.03,-0.31,1
-5.00,38.82,58.17,0.96,0.04,-0.30,1
-8.30,44.13,53.71,0.97,0.08,-0.28,1
-9.40,43.70,51.03,0.99,0.10,-0.26,1
-8.79,38.39,49.93,0.99,0.12,-0.26,1
-7.93,31.37,50.54,0.98,0.13,-0.26,1
-7.02,27.04,52.55,0.97,0.13,-0.26,1
-7.02,26.43,54.14,0.98,0.14,-0.26,1
-7.39,28.32,54.02,0.97,0.15,-0.26,1
-7.69,31.25,52.25,1.02,0.21,-0.18,1
-6.23,29.05,52.19,0.90,0.15,-0.32,1
-5.80,43.64,48.89,1.00,0.17,-0.28,1
-7.32,50.54,48.58,0.95,0.18,-0.32,1
-8.54,56.46,44.92,1.01,0.18,-0.30,1
-6.90,57.07,41.56,1.02,0.18,-0.31,1
-5.62,51.33,39.37,1.01,0.19,-0.32,1
-4.15,43.15,41.44,0.99,0.21,-0.32,1
-2.20,34.36,47.00,1.00,0.23,-0.30,1
1.16,24.54,54.02,1.02,0.24,-0.29,1
6.04,16.72,59.20,1.02,0.24,-0.31,1
10.07,13.73,62.19,1.03,0.24,-0.35,1
10.80,15.50,63.29,1.02,0.25,-0.40,1
9.03,20.81,62.38,1.03,0.25,-0.41,1
5.25,27.40,58.23,1.07,0.25,-0.41,1
2.08,32.71,51.82,1.07,0.26,-0.42,1
-0.24,37.11,44.62,1.08,0.27,-0.41,1
-1.46,39.00,36.74,1.08,0.29,-0.39,1
-1.77,35.83,30.58,1.08,0.30,-0.36,1
-0.55,27.89,27.65,1.07,0.33,-0.33,1
3.23,17.15,28.20,1.07,0.35,-0.32,1
9.52,5.55,30.33,1.07,0.34,-0.33,1
14.89,-3.78,31.62,1.07,0.33,-0.35,1
17.64,-8.97,30.58,1.07,0.32,-0.39,1
17.27,-11.60,26.92,1.07,0.32,-0.43,1
14.22,-11.23,22.34,1.07,0.34,-0.45,1
10.19,-9.34,17.82,1.08,0.33,-0.45,1
6.04,-7.45,13.06,1.09,0.33,-0.43,1
2.01,-6.47,8.18,1.07,0.34,-0.42,1
-0.73,-5.74,3.66,1.06,0.33,-0.40,1
-2.75,-5.43,-0.55,1.04,0.32,-0.39,1
-3.85,-5.55,-3.60,1.01,0.32,-0.38,1
-4.33,-5.86,-5.37,0.99,0.31,-0.35,1
-2.50,-6.29,-6.29,0.98,0.30,-0.34,1
0.31,-6.29,-7.20,0.95,0.29,-0.32,1
4.76,-5.37,-7.69,0.93,0.27,-0.34,1
6.59,-3.17,-7.75,0.92,0.25,-0.33,1
7.20,-1.77,-9.95,0.92,0.26,-0.33,1
10.13,-1.95,-14.59,0.90,0.26,-0.33,1
13.43,-2.08,-18.07,0.88,0.23,-0.34,0
13.24,-1.34,-19.29,0.86,0.23,-0.36,0
10.38,-0.98,-18.86,0.83,0.23,-0.38,0
7.26,0.12,-17.15,0.83,0.23,-0.37,0
5.55,1.77,-15.14,0.83,0.22,-0.35,0
5.07,2.69,-12.76,0.83,0.21,-0.35,0
5.00,2.69,-10.68,0.83,0.21,-0.34,0
5.86,2.62,-9.03,0.85,0.21,-0.33,0
8.12,0.55,-8.85,0.87,0.22,-0.34,0
9.83,-2.69,-9.09,0.89,0.19,-0.35,0
9.34,-4.70,-9.34,0.87,0.22,-0.38,0
9.28,-8.06,-11.17,0.85,0.18,-0.41,0
6.53,-6.84,-10.31,0.83,0.18,-0.40,0
3.05,-4.33,-10.13,0.85,0.18,-0.39,0
2.75,-1.46,-10.19,0.83,0.18,-0.38,0
3.54,1.46,-9.40,0.83,0.20,-0.37,0
5.25,4.82,-7.45,0.83,0.20,-0.35,0
5.92,7.32,-3.72,0.83,0.20,-0.34,0
6.53,8.73,1.04,0.83,0.21,-0.35,0
7.63,8.97,5.37,0.85,0.20,-0.37,0
7.32,8.79,7.93,0.86,0.20,-0.38,0
6.29,8.73,9.34,0.86,0.20,-0.39,0
5.00,9.40,10.68,0.86,0.19,-0.39,0
3.48,9.83,11.05,0.88,0.20,-0.38,0
3.11,8.00,9.28,0.89,0.21,-0.38,0
3.42,4.94,6.53,0.89,0.21,-0.38,0
3.05,2.75,4.27,0.88,0.22,-0.39,0
2.20,2.20,3.36,0.88,0.21,-0.38,0
1.04,2.99,2.32,0.87,0.22,-0.37,0
-0.06,3.72,1.65,0.86,0.22,-0.37,0
-0.98,5.25,1.89,0.86,0.22,-0.36,0
-1.46,6.71,3.11,0.87,0.23,-0.35,0
-0.67,6.65,5.07,0.88,0.23,-0.35,0
0.67,5.43,6.71,0.88,0.23,-0.35,0
2.62,3.05,7.63,0.89,0.24,-0.35,0
4.58,0.31,7.69,0.89,0.23,-0.37,0
4.82,-1.22,7.45,0.89,0.23,-0.37,0
3.66,-1.65,6.90,0.89,0.22,-0.37,0
2.08,-0.98,5.98,0.89,0.23,-0.36,0
1.53,-0.67,4.46,0.89,0.24,-0.36,0
1.59,-0.85,3.97,0.89,0.25,-0.36,0
1.77,0.43,4.58,0.90,0.25,-0.35,0
1.71,2.50,5.43,0.91,0.25,-0.36,0
1.04,4.70,5.49,0.92,0.26,-0.37,0
0.37,6.04,4.82,0.93,0.27,-0.36,0
0.49,6.71,4.03,0.94,0.27,-0.34,0
1.40,5.92,3.30,0.94,0.27,-0.34,0
2.69,3.78,1.83,0.94,0.27,-0.34,0
4.58,0.92,0.73,0.94,0.27,-0.34,0
5.74,-1.53,-0.18,0.94,0.26,-0.34,0
6.35,-3.30,-1.10,0.93,0.26,-0.35,0
6.35,-4.39,-2.01,0.91,0.26,-0.35,0
6.84,-4.52,-2.62,0.90,0.25,-0.35,0
6.53,-2.99,-2.50,0.89,0.24,-0.36,0
5.68,-0.43,-2.32,0.88,0.24,-0.36,0
4.58,2.62,-2.14,0.86,0.23,-0.35,0
4.09,5.19,-2.14,0.87,0.23,-0.35,0
4.46,6.65,-2.75,0.86,0.23,-0.34,0
5.19,6.77,-3.66,0.86,0.23,-0.35,0
5.92,6.10,-3.85,0.85,0.22,-0.36,0
6.29,5.31,-4.03,0.84,0.22,-0.37,0
5.31,4.58,-3.97,0.84,0.21,-0.39,0
2.99,4.46,-3.17,0.83,0.20,-0.40,0
0.79,5.25,-2.44,0.83,0.21,-0.38,0
0.24,6.10,-1.53,0.83,0.21,-0.38,0
0.67,6.84,-0.61,0.83,0.22,-0.38,0
1.22,7.69,0.67,0.84,0.22,-0.37,0
1.71,8.42,2.26,0.84,0.23,-0.37,0
3.17,8.61,2.81,0.85,0.24,-0.37,0
5.31,8.54,3.05,0.86,0.23,-0.37,0
6.71,8.00,3.36,0.87,0.22,-0.39,0
6.35,7.02,3.54,0.88,0.22,-0.40,0
4.52,5.74,3.36,0.88,0.23,-0.41,0
2.69,3.97,3.42,0.88,0.23,-0.40,0
1.40,2.01,3.97,0.88,0.23,-0.40,0
0.37,0.00,4.58,0.88,0.23,-0.41,0
-0.85,-0.92,5.37,0.89,0.25,-0.40,0
-1.46,-0.85,6.10,0.90,0.26,-0.38,0
-1.22,-0.31,6.41,0.91,0.27,-0.37,0
-0.55,0.37,5.80,0.91,0.27,-0.37,0
0.37,0.85,5.19,0.92,0.27,-0.36,0
1.04,0.49,4.21,0.93,0.27,-0.37,0
1.71,-0.49,2.56,0.92,0.27,-0.37,0
1.95,-1.04,1.34,0.91,0.26,-0.36,0
2.08,-1.46,0.61,0.90,0.26,-0.36,0
2.38,-1.10,0.18,0.89,0.26,-0.36,0
2.75,-0.06,0.43,0.88,0.25,-0.36,0
2.62,1.10,0.61,0.87,0.25,-0.35,0
2.44,2.01,0.79,0.88,0.23,-0.35,0
1.95,2.32,0.92,0.87,0.24,-0.35,0
1.53,1.53,0.55,0.87,0.25,-0.35,0
2.01,1.16,0.61,0.86,0.24,-0.35,0
2.50,0.79,0.37,0.86,0.24,-0.36,0
2.93,1.53,0.24,0.85,0.25,-0.37,0
3.72,3.23,0.92,0.85,0.26,-0.38,0
4.09,5.07,2.38,0.86,0.23,-0.38,0
3.17,6.41,2.20,0.87,0.23,-0.38,0
2.08,6.53,1.40,0.88,0.24,-0.38,0
2.08,5.37,0.85,0.88,0.24,-0.37,0
1.95,3.85,0.31,0.88,0.24,-0.38,0
2.08,2.50,0.49,0.87,0.24,-0.38,0
2.20,1.59,1.59,0.87,0.24,-0.39,0
1.83,1.04,2.01,0.86,0.24,-0.40,0
1.83,0.98,1.28,0.87,0.24,-0.40,0
2.01,1.04,0.37,0.88,0.24,-0.40,0
1.65,0.85,0.18,0.86,0.24,-0.40,0
1.53,1.04,0.18,0.86,0.24,-0.40,0
1.22,1.95,0.43,0.86,0.25,-0.38,0
1.40,2.08,0.92,0.87,0.25,-0.38,0
2.08,1.28,1.71,0.87,0.24,-0.38,0
2.38,-0.61,2.26,0.88,0.25,-0.38,0
2.56,-2.81,2.56,0.87,0.25,-0.38,0
2.75,-4.64,2.87,0.87,0.25,-0.38,0
3.11,-5.74,2.56,0.87,0.25,-0.38,0
3.11,-5.86,2.44,0.86,0.24,-0.38,0
2.08,-5.00,2.69,0.86,0.24,-0.38,0
1.04,-3.48,2.87,0.87,0.25,-0.37,0
0.85,-2.32,3.17,0.87,0.26,-0.35,0
1.77,-1.71,3.36,0.88,0.27,-0.34,0
2.87,-1.71,3.60,0.88,0.28,-0.34,0
4.33,-1.83,4.27,0.90,0.29,-0.32,0
6.47,-3.11,4.70,0.91,0.29,-0.32,0
8.85,-5.13,4.52,0.91,0.28,-0.34,0
9.77,-6.04,4.39,0.91,0.28,-0.35,0
10.01,-6.29,4.58,0.92,0.28,-0.35,0
10.86,-7.20,4.52,0.92,0.27,-0.36,0
11.17,-7.93,4.09,0.92,0.27,-0.34,0
11.84,-9.28,3.17,0.92,0.29,-0.30,0
15.75,-14.95,3.72,0.94,0.32,-0.24,0
24.96,-27.89,6.53,0.93,0.33,-0.23,0
36.74,-43.21,11.23,0.92,0.31,-0.26,0
46.02,-54.50,15.44,0.90,0.29,-0.30,0
49.99,-58.11,16.85,0.90,0.27,-0.34,0
49.68,-55.79,14.71,0.90,0.26,-0.35,0
46.57,-49.56,10.25,0.91,0.27,-0.34,0
42.97,-44.74,5.92,0.95,0.29,-0.28,0
43.09,-47.91,2.50,1.00,0.33,-0.21,0
50.48,-63.48,1.53,1.03,0.38,-0.14,0
65.98,-91.80,4.88,1.04,0.37,-0.17,0
81.48,-121.89,9.40,1.02,0.33,-0.26,0
87.71,-141.11,11.72,0.98,0.27,-0.35,0
81.42,-144.59,11.29,0.95,0.26,-0.39,0
66.28,-134.77,9.70,0.94,0.28,-0.36,0
49.38,-120.61,7.14,0.96,0.29,-0.28,0
36.38,-108.89,4.52,1.00,0.34,-0.15,0
32.84,-106.81,1.71,1.01,0.37,-0.07,0
36.87,-112.06,-1.77,1.02,0.40,-0.05,0
42.72,-122.74,-2.69,1.08,0.43,0.07,0
57.01,-146.91,0.55,1.12,0.46,0.18,0
79.28,-188.23,7.32,1.12,0.43,0.10,0
95.09,-229.74,13.73,1.05,0.34,-0.05,0
94.42,-248.78,15.81,0.93,0.21,-0.22,0
73.91,-236.63,7.75,0.92,0.18,-0.20,0
42.48,-209.17,-4.03,0.79,0.17,-0.18,0
11.23,-170.04,-15.69,0.76,0.21,-0.05,0
-14.65,-131.90,-22.40,0.77,0.25,0.12,0
-30.33,-104.61,-25.39,0.72,0.28,0.21,0
-38.76,-84.35,-24.48,0.76,0.31,0.32,0
-38.51,-78.49,-22.52,0.78,0.31,0.39,0
-32.65,-86.30,-22.58,0.80,0.35,0.42,0
-23.68,-100.46,-20.87,0.84,0.40,0.38,0
-11.23,-117.43,-18.86,0.89,0.36,0.33,0
-2.50,-135.01,-18.80,0.91,0.28,0.24,0
-6.90,-147.46,-22.58,0.90,0.20,0.15,0
-24.54,-148.93,-29.42,0.83,0.17,0.12,0
-47.91,-137.33,-34.42,0.75,0.21,0.17,0
-66.96,-116.39,-34.30,0.70,0.26,0.30,0
-73.61,-95.28,-28.08,0.68,0.31,0.45,0
-68.12,-80.02,-18.98,0.71,0.33,0.49,0
-59.02,-69.76,-14.40,0.81,0.30,0.50,0
-54.26,-68.48,-20.39,0.87,0.30,0.47,0
-53.89,-75.38,-31.62,0.88,0.31,0.45,0
-54.75,-84.59,-41.08,0.84,0.30,0.43,0
-56.76,-89.42,-44.62,0.78,0.28,0.45,0
-58.96,-88.13,-41.50,0.72,0.27,0.47,0
-60.30,-83.86,-34.18,0.77,0.30,0.46,0
-61.83,-82.40,-29.11,0.85,0.32,0.39,0
-66.16,-86.85,-33.69,0.86,0.32,0.42,0
-69.52,-93.51,-41.50,0.86,0.35,0.49,0
-67.20,-101.01,-44.86,0.80,0.35,0.57,0
-58.23,-105.59,-40.83,0.70,0.33,0.64,0
-44.98,-102.66,-30.15,0.64,0.33,0.68,0
-30.21,-93.51,-18.31,0.64,0.32,0.66,0
-17.88,-82.34,-12.70,0.68,0.33,0.56,0
-12.45,-66.89,-14.34,0.72,0.32,0.53,0
-11.60,-50.78,-23.07,0.81,0.36,0.55,0
-10.31,-43.70,-35.64,0.92,0.35,0.55,0
-10.56,-48.34,-54.02,0.90,0.33,0.61,0
-8.67,-56.15,-69.34,0.78,0.33,0.65,0
-3.36,-56.27,-72.14,0.67,0.27,0.66,0
-0.49,-49.13,-64.70,0.60,0.25,0.67,0
-0.12,-40.34,-50.48,0.59,0.25,0.68,0
0.12,-33.69,-31.49,0.63,0.24,0.65,0
-1.89,-30.94,-14.59,0.67,0.24,0.64,0
-5.31,-30.03,-5.13,0.72,0.28,0.63,0
-7.45,-30.03,-1.77,0.75,0.26,0.64,0
-8.24,-28.32,-3.78,0.72,0.26,0.68,0
-5.19,-21.24,-6.84,0.68,0.29,0.70,0
2.38,-10.86,-7.87,0.73,0.29,0.69,0
9.58,-6.16,-11.54,0.77,0.28,0.69,0
16.17,-9.95,-19.10,0.76,0.28,0.74,0
27.40,-18.86,-23.86,0.70,0.29,0.77,0
43.09,-27.47,-20.14,0.64,0.29,0.78,0
59.63,-31.01,-8.73,0.58,0.27,0.79,0
77.45,-30.27,7.69,0.56,0.27,0.80,0
95.76,-28.44,26.31,0.56,0.21,0.79,0
110.35,-25.45,43.46,0.57,0.15,0.83,0
121.22,-23.44,60.12,0.56,0.21,0.88,0
138.55,-24.60,79.28,0.55,0.24,0.88,0
159.36,-24.41,98.21,0.58,0.26,0.86,0
178.65,-23.01,110.47,0.62,0.30,0.80,0
195.19,-18.86,112.79,0.71,0.31,0.75,0
206.85,-12.82,104.06,0.80,0.34,0.73,0
216.25,-9.03,87.65,0.79,0.35,0.70,0
225.52,-2.56,73.18,0.77,0.27,0.68,0
227.17,7.32,65.06,0.75,0.20,0.70,0
222.23,13.79,64.15,0.70,0.17,0.71,0
216.19,15.81,70.31,0.65,0.08,0.72,0
206.85,16.48,80.32,0.65,0.04,0.74,0
195.50,15.14,89.42,0.65,0.08,0.77,0
189.51,12.51,97.29,0.65,0.10,0.80,0
190.86,12.51,101.93,0.66,0.12,0.82,0
196.90,15.08,103.70,0.68,0.15,0.85,0
207.82,18.31,100.52,0.68,0.18,0.85,0
221.98,21.67,95.52,0.66,0.13,0.81,0
231.75,25.70,92.04,0.63,0.07,0.74,0
232.36,29.66,92.96,0.63,0.01,0.68,0
224.91,33.26,98.14,0.66,-0.05,0.63,0
211.85,34.91,103.52,0.67,-0.11,0.59,0
194.64,36.25,104.68,0.70,-0.13,0.60,0
178.65,39.25,101.14,0.70,-0.10,0.65,0
168.95,45.41,96.19,0.72,-0.07,0.68,0
165.41,50.72,91.43,0.72,-0.02,0.74,0
169.62,52.43,86.06,0.68,-0.02,0.74,0
177.92,51.03,85.63,0.67,-0.11,0.67,0
177.49,48.77,89.23,0.68,-0.10,0.60,0
174.44,44.62,91.74,0.68,-0.13,0.56,0
172.42,39.55,93.81,0.72,-0.22,0.52,0
162.23,36.93,94.91,0.74,-0.23,0.48,0
147.03,42.42,93.69,0.73,-0.20,0.46,0
133.36,54.14,92.04,0.73,-0.17,0.50,0
125.18,62.81,94.30,0.72,-0.15,0.52,0
122.31,65.98,99.91,0.71,-0.12,0.52,0
122.99,65.98,108.34,0.68,-0.16,0.52,0
121.95,65.98,117.61,0.68,-0.18,0.50,0
117.98,66.47,125.18,0.71,-0.18,0.48,0
113.10,70.98,128.66,0.72,-0.14,0.49,0
109.86,76.78,130.98,0.76,-0.13,0.49,0
107.91,79.83,133.67,0.83,-0.16,0.46,0
104.13,77.64,132.69,0.90,-0.19,0.39,0
97.29,70.31,127.14,0.94,-0.18,0.32,0
88.99,59.75,119.45,0.95,-0.20,0.26,0
78.98,50.11,111.15,0.92,-0.17,0.25,0
67.87,47.61,108.22,0.84,-0.16,0.29,0
55.66,53.96,108.34,0.83,-0.08,0.39,0
50.48,63.35,109.86,0.88,-0.04,0.48,0
55.66,62.99,109.62,0.95,-0.04,0.46,0
62.50,52.25,107.30,0.98,-0.04,0.38,0
65.06,38.88,105.96,0.94,-0.04,0.31,0
63.29,30.76,106.69,0.86,0.00,0.34,0
62.50,32.10,110.11,0.84,0.02,0.44,0
64.51,38.51,112.67,0.87,0.06,0.48,0
70.19,39.92,118.10,0.86,0.13,0.49,0
77.82,36.93,128.91,0.86,0.10,0.45,0
81.79,35.28,141.54,0.85,0.06,0.35,0
77.45,39.00,153.02,0.85,0.03,0.26,0
65.31,43.15,165.89,0.83,0.06,0.19,0
48.34,45.59,184.45,0.78,0.07,0.17,0
29.11,50.66,203.80,0.76,0.09,0.23,0
10.86,56.70,219.73,0.78,0.15,0.32,0
-0.55,60.36,232.36,0.84,0.22,0.38,0
-1.59,62.01,237.92,0.91,0.28,0.42,0
4.33,58.84,233.52,0.96,0.33,0.37,0
10.80,47.24,228.15,1.04,0.27,0.19,0
5.07,45.04,215.64,1.12,0.21,0.08,0
-7.93,55.11,183.29,1.17,0.37,0.11,0
-15.38,50.72,151.79,1.18,0.44,0.10,0
-19.17,35.28,129.15,1.14,0.42,0.04,0
-25.94,30.46,101.81,1.11,0.53,0.20,0
-23.44,21.67,77.64,1.05,0.61,0.31,0
-11.84,-2.26,66.71,0.94,0.56,0.18,0
-8.30,-19.23,64.45,0.81,0.45,0.03,0
-22.58,-19.53,66.77,0.69,0.44,0.02,0
-44.80,-15.14,79.77,0.69,0.38,0.02,0
-66.04,-3.05,89.66,0.83,0.34,0.14,0
-77.09,12.88,73.67,1.02,0.50,0.35,0
-63.90,6.96,45.04,1.12,0.54,0.34,0
-42.48,-12.88,9.28,1.22,0.42,0.09,0
-41.38,-28.14,-33.57,1.27,0.40,-0.04,0
-59.51,-48.03,-74.46,1.29,0.44,-0.12,0
-81.42,-79.71,-106.14,1.23,0.47,-0.18,0
-100.77,-114.38,-132.69,1.08,0.48,-0.17,0
-114.44,-142.40,-154.42,0.92,0.51,-0.10,0
-124.08,-158.45,-166.14,0.78,0.53,0.01,0
-126.65,-162.96,-169.56,0.70,0.46,0.08,0
-128.11,-153.99,-172.18,0.72,0.37,0.15,0
-131.47,-137.08,-180.91,0.82,0.32,0.24,0
-131.96,-125.79,-198.24,0.95,0.29,0.26,0
-132.45,-126.65,-219.60,1.06,0.28,0.24,0
-137.39,-139.22,-241.15,1.06,0.35,0.18,0
-142.21,-160.58,-259.70,0.96,0.47,0.17,0
-140.75,-182.50,-265.99,0.76,0.51,0.21,0
-136.60,-192.26,-257.93,0.61,0.50,0.27,0
-133.97,-184.33,-241.15,0.56,0.50,0.32,0
-133.00,-161.32,-218.69,0.56,0.47,0.41,0
-130.74,-133.18,-193.66,0.65,0.40,0.48,0
-126.53,-109.50,-177.49,0.77,0.34,0.58,0
-118.84,-100.59,-171.14,0.93,0.31,0.62,0
-111.69,-110.96,-167.91,1.00,0.28,0.56,0
-108.34,-130.43,-170.04,0.96,0.30,0.54,0
-104.55,-146.85,-174.19,0.84,0.25,0.48,0
-104.25,-147.09,-173.95,0.71,0.24,0.48,0
-105.96,-131.41,-168.70,0.62,0.26,0.54,0
-104.25,-108.52,-153.56,0.59,0.18,0.53,0
-104.98,-81.67,-136.35,0.57,0.15,0.56,0
-106.38,-51.94,-126.10,0.65,0.07,0.50,0
-115.17,-20.14,-128.66,0.74,-0.08,0.37,0
-143.68,9.83,-141.36,0.83,-0.02,0.47,0
-171.26,22.28,-148.13,0.88,0.17,0.64,0
-174.01,7.08,-143.07,0.85,0.24,0.72,0
-158.26,-18.68,-132.75,0.75,0.23,0.75,0
-135.31,-38.27,-117.61,0.68,0.21,0.76,0
-110.17,-44.62,-98.94,0.64,0.15,0.76,0
-87.89,-36.01,-84.47,0.66,0.11,0.69,0
-73.18,-15.69,-80.26,0.73,0.03,0.54,0
-77.82,13.79,-95.46,0.90,-0.12,0.30,0
-113.53,50.05,-134.89,1.06,-0.12,0.15,0
-171.20,82.95,-187.01,1.16,-0.07,0.03,0
-241.27,114.69,-243.16,1.20,-0.07,-0.11,0
-324.10,152.53,-292.79,1.04,0.10,0.05,0
-391.30,192.63,-303.96,0.94,0.34,0.39,0
-404.91,225.10,-281.92,0.90,0.42,0.78,0
-367.00,244.81,-255.49,0.98,0.44,1.09,0
-295.29,247.68,-238.89,1.18,0.42,1.03,0
-226.62,236.02,-247.50,1.28,0.24,0.63,0
-199.58,223.39,-278.81,1.17,0.07,0.29,0
-213.50,223.33,-299.74,1.19,-0.05,0.28,0
-237.12,221.25,-301.09,1.10,-0.08,0.68,0
-231.45,193.48,-274.72,0.89,-0.04,0.97,0
-184.14,148.86,-216.67,0.63,-0.06,0.86,0
-124.63,111.82,-142.40,0.65,-0.18,0.62,0
-89.17,74.52,-69.82,0.71,-0.33,0.36,0
-86.18,45.90,-15.26,0.82,-0.38,0.18,0
-95.03,29.48,13.85,0.93,-0.34,0.20,0
-94.67,17.94,24.90,1.11,-0.26,0.32,0
-78.43,-0.12,20.14,1.12,-0.27,0.36,0
-60.06,-16.54,4.27,0.98,-0.25,0.30,0
-44.74,-13.37,-12.15,0.82,-0.25,0.25,0
-34.36,10.74,-27.53,0.72,-0.26,0.24,0
-27.28,44.92,-42.97,0.63,-0.23,0.29,0
-15.75,81.36,-55.11,0.66,-0.18,0.36,0
2.93,107.73,-64.03,0.77,-0.16,0.29,0
18.31,114.69,-72.69,0.85,-0.22,0.17,0
20.14,106.75,-79.90,0.79,-0.27,0.10,0
15.26,99.61,-80.87,0.69,-0.31,0.07,0
12.45,104.92,-72.69,0.71,-0.36,0.12,0
13.61,112.67,-60.24,0.70,-0.39,0.16,0
19.90,118.77,-48.03,0.64,-0.41,0.16,0
29.91,131.77,-34.79,0.60,-0.44,0.20,0
43.03,153.32,-19.53,0.59,-0.42,0.25,0
60.73,176.21,-3.30,0.65,-0.34,0.25,0
85.02,192.08,10.01,0.80,-0.28,0.13,0
104.86,192.81,15.08,0.82,-0.31,-0.14,0
104.86,192.50,15.50,0.79,-0.39,-0.29,0
87.10,200.44,16.05,0.81,-0.39,-0.28,0
71.84,209.29,18.25,0.82,-0.33,-0.17,0
71.78,213.81,23.38,0.77,-0.26,-0.15,0
83.56,216.80,34.30,0.72,-0.24,-0.19,0
97.90,225.77,51.45,0.68,-0.27,-0.25,0
107.06,238.89,72.51,0.68,-0.26,-0.28,0
113.83,250.31,95.21,0.67,-0.18,-0.29,0
122.86,254.09,119.63,0.67,-0.08,-0.32,0
135.44,247.50,146.55,0.68,0.06,-0.32,0
156.49,227.84,175.72,0.75,0.13,-0.29,0
182.13,188.84,205.63,0.80,0.23,-0.31,0
209.59,137.82,236.15,0.77,0.32,-0.46,0
233.52,94.30,263.92,0.69,0.35,-0.58,0
251.28,71.59,286.07,0.69,0.32,-0.66,0
261.05,69.95,296.75,0.80,0.32,-0.69,0
263.18,76.35,289.18,0.83,0.31,-0.75,0
256.84,84.05,266.78,0.77,0.24,-0.78,0
238.71,94.60,229.98,0.80,0.38,-0.84,0
220.70,118.47,202.70,0.88,0.40,-0.70,0
205.75,118.65,174.68,0.91,0.39,-0.67,0
191.28,106.81,140.87,1.00,0.46,-0.75,0
177.98,88.56,102.29,1.10,0.39,-0.77,0
160.46,57.92,58.35,1.04,0.36,-0.85,0
131.65,21.73,27.34,0.88,0.44,-0.97,0
99.91,-9.34,18.25,0.77,0.44,-1.04,0
69.46,-27.28,20.69,0.80,0.39,-0.99,0
42.30,-34.42,23.07,0.83,0.40,-0.89,0
21.73,-35.46,19.29,0.84,0.48,-0.79,0
10.62,-34.73,12.15,0.83,0.56,-0.70,0
7.93,-33.57,5.49,0.84,0.61,-0.58,0
12.57,-33.87,-0.24,0.85,0.64,-0.46,0
23.44,-37.90,-5.98,0.87,0.68,-0.36,0
41.93,-47.00,-15.20,0.87,0.67,-0.32,0
61.71,-56.82,-25.09,0.74,0.64,-0.43,0
71.84,-57.80,-30.21,0.66,0.58,-0.57,0
65.00,-52.25,-27.95,0.67,0.50,-0.65,0
44.74,-46.08,-23.44,0.68,0.44,-0.66,0
20.69,-38.39,-20.94,0.69,0.46,-0.67,0
0.49,-27.22,-21.42,0.72,0.49,-0.60,0
-11.41,-20.02,-24.54,0.77,0.51,-0.51,0
-15.26,-16.66,-28.56,0.81,0.53,-0.39,0
-10.44,-20.94,-32.65,0.81,0.56,-0.31,0
1.53,-31.25,-35.28,0.84,0.55,-0.28,0
15.87,-44.62,-38.64,0.80,0.54,-0.30,0
27.40,-55.18,-40.04,0.69,0.53,-0.42,0
29.85,-55.54,-34.67,0.65,0.47,-0.51,0
20.39,-47.97,-24.17,0.64,0.43,-0.54,0
4.46,-36.93,-13.55,0.69,0.42,-0.53,0
-9.58,-26.12,-8.61,0.76,0.40,-0.48,0
-19.53,-18.98,-13.06,0.81,0.41,-0.42,0
-23.93,-12.63,-24.35,0.80,0.46,-0.38,0
-22.95,-7.32,-34.18,0.78,0.50,-0.32,0
-16.78,-4.76,-37.72,0.78,0.50,-0.28,0
-9.03,-6.77,-36.25,0.74,0.49,-0.32,0
-4.27,-9.52,-29.85,0.67,0.47,-0.38,0
-4.46,-9.95,-18.68,0.68,0.44,-0.40,0
-7.81,-8.67,-7.45,0.70,0.41,-0.40,0
-11.78,-6.29,0.73,0.71,0.41,-0.41,0
-14.53,-1.71,4.88,0.79,0.41,-0.39,0
-15.44,0.37,3.17,0.85,0.42,-0.35,1
-13.18,-3.42,-3.91,0.85,0.42,-0.36,1
-10.07,-7.81,-10.50,0.84,0.44,-0.36,1
-7.93,-11.66,-16.36,0.86,0.41,-0.35,1
-5.80,-16.66,-22.28,0.80,0.43,-0.38,1
-4.76,-16.66,-25.21,0.74,0.44,-0.43,1
-6.35,-11.78,-20.45,0.76,0.42,-0.41,1
-8.42,-7.93,-13.43,0.80,0.42,-0.37,1
-7.26,-7.75,-9.64,0.82,0.43,-0.36,1
-4.39,-8.61,-7.57,0.81,0.44,-0.40,1
-3.85,-9.77,-5.55,0.84,0.41,-0.44,1
-6.84,-12.45,-4.88,0.86,0.40,-0.45,1
-11.05,-16.97,-6.71,0.87,0.41,-0.44,1
-13.49,-22.71,-10.25,0.90,0.42,-0.42,1
-14.10,-29.24,-14.71,0.88,0.43,-0.41,1
-13.85,-34.06,-17.82,0.86,0.43,-0.40,1
-12.15,-35.10,-18.62,0.84,0.43,-0.41,1
-10.50,-31.98,-17.52,0.86,0.41,-0.42,1
-11.17,-27.89,-16.66,0.88,0.41,-0.42,1
-11.96,-25.63,-17.27,0.90,0.42,-0.41,1
-12.02,-24.84,-17.64,0.93,0.44,-0.39,1
-10.07,-27.22,-17.58,0.97,0.44,-0.40,1
-8.18,-33.14,-18.86,0.98,0.42,-0.44,1
-9.28,-38.88,-20.75,0.98,0.42,-0.44,1
-11.29,-42.60,-23.13,0.99,0.41,-0.41,1
-10.56,-46.26,-25.09,1.00,0.42,-0.39,1
-7.26,-51.70,-26.67,0.97,0.44,-0.39,1
-3.66,-55.60,-26.86,0.96,0.43,-0.38,1
-1.46,-56.46,-25.15,0.95,0.42,-0.38,1
-0.67,-54.69,-23.25,0.98,0.42,-0.38,1
-1.34,-53.10,-23.38,1.00,0.39,-0.39,1
-3.42,-52.61,-27.22,1.02,0.41,-0.38,1
-5.55,-53.47,-30.40,1.01,0.42,-0.36,1
-6.10,-54.57,-31.62,1.01,0.44,-0.33,1
-4.03,-57.07,-30.94,1.02,0.44,-0.30,1
-0.43,-60.12,-30.46,1.02,0.45,-0.29,1
3.30,-61.52,-29.97,1.02,0.45,-0.29,1
6.59,-60.42,-28.87,1.01,0.45,-0.28,1
7.93,-56.76,-27.53,1.01,0.45,-0.28,1
7.32,-51.27,-27.53,1.04,0.43,-0.28,1
3.66,-45.29,-30.52,1.07,0.42,-0.28,1
-1.34,-39.55,-37.41,1.10,0.42,-0.27,1
-7.20,-33.57,-46.39,1.11,0.41,-0.26,1
-13.85,-26.67,-55.54,1.13,0.41,-0.25,1
-20.32,-19.41,-64.39,1.14,0.43,-0.25,1
-25.76,-11.96,-73.73,1.15,0.42,-0.25,1
-30.82,-5.55,-83.07,1.14,0.41,-0.23,1
-36.19,1.04,-90.33,1.13,0.40,-0.21,1
-40.34,7.87,-95.40,1.12,0.40,-0.20,1
-42.72,13.00,-98.57,1.12,0.40,-0.17,1
-42.30,15.93,-100.22,1.12,0.40,-0.14,1
-39.49,15.99,-100.71,1.13,0.40,-0.13,1
-35.52,14.16,-100.10,1.14,0.40,-0.13,1
-30.09,11.05,-100.10,1.16,0.40,-0.13,1
-24.23,6.10,-101.56,1.18,0.39,-0.13,1
-18.86,-0.24,-104.49,1.16,0.37,-0.18,1
-17.52,-4.58,-107.60,1.16,0.35,-0.20,1
-19.29,-5.92,-111.51,1.16,0.33,-0.19,1
-21.42,-5.86,-117.49,1.14,0.31,-0.20,1
-23.86,-4.94,-124.76,1.09,0.29,-0.22,1
-27.95,-1.77,-130.80,1.05,0.27,-0.20,1
-32.59,3.48,-135.44,1.02,0.26,-0.17,1
-34.79,11.29,-140.81,0.99,0.24,-0.14,1
-34.24,19.78,-145.75,0.96,0.23,-0.13,1
-32.47,27.10,-148.01,0.95,0.21,-0.14,1
-31.74,29.91,-148.68,0.95,0.17,-0.13,1
-30.82,26.55,-149.17,0.95,0.16,-0.11,1
-27.83,17.82,-149.84,0.93,0.16,-0.10,1
-22.46,7.63,-149.11,0.88,0.13,-0.10,1
-16.60,-1.77,-145.20,0.84,0.09,-0.10,1
-11.29,-8.61,-139.65,0.82,0.06,-0.09,1
-5.25,-13.73,-135.86,0.80,0.01,-0.11,1
1.04,-17.15,-134.34,0.75,-0.03,-0.13,1
5.68,-18.62,-133.36,0.73,-0.04,-0.10,1
9.46,-19.59,-129.88,0.69,-0.09,-0.11,1
12.45,-15.87,-129.58,0.67,-0.12,-0.10,1
15.32,-10.56,-130.62,0.64,-0.14,-0.13,1
16.66,-1.77,-131.71,0.65,-0.20,-0.14,1
15.38,7.02,-133.97,0.65,-0.24,-0.16,1
11.11,12.82,-137.08,0.62,-0.27,-0.17,1
6.41,18.62,-138.98,0.60,-0.28,-0.18,1
2.20,23.50,-137.39,0.59,-0.30,-0.15,1
0.37,25.88,-134.22,0.58,-0.31,-0.16,1
0.24,27.95,-130.62,0.60,-0.35,-0.16,1
1.28,28.69,-128.48,0.60,-0.38,-0.15,1
3.17,26.25,-126.77,0.58,-0.41,-0.16,1
5.49,22.28,-124.27,0.55,-0.42,-0.18,1
8.24,19.10,-118.35,0.54,-0.45,-0.19,1
11.35,16.60,-111.94,0.52,-0.46,-0.20,1
15.14,15.08,-105.47,0.51,-0.48,-0.21,1
19.47,15.81,-99.79,0.52,-0.53,-0.22,1
23.13,16.54,-96.68,0.53,-0.56,-0.24,1
25.21,15.20,-94.85,0.52,-0.57,-0.29,1
26.06,13.61,-93.38,0.49,-0.59,-0.33,1
25.76,13.06,-91.13,0.47,-0.63,-0.36,1
24.17,13.92,-89.23,0.45,-0.64,-0.38,1
22.89,17.52,-88.13,0.45,-0.68,-0.39,1
21.73,21.61,-88.68,0.44,-0.70,-0.39,1
20.32,23.80,-88.87,0.44,-0.73,-0.38,1
18.68,22.83,-88.81,0.42,-0.75,-0.38,1
16.24,19.10,-89.17,0.41,-0.77,-0.38,1
14.28,12.88,-88.81,0.39,-0.76,-0.37,1
13.49,6.47,-86.67,0.38,-0.77,-0.36,1
13.92,0.12,-84.35,0.36,-0.78,-0.35,1
14.28,-5.31,-81.60,0.34,-0.78,-0.37,1
14.34,-6.59,-77.94,0.34,-0.82,-0.36,1
13.12,-5.62,-75.93,0.34,-0.82,-0.36,1
12.45,-4.15,-74.10,0.34,-0.82,-0.35,1
12.02,-1.77,-71.96,0.36,-0.83,-0.34,1
11.47,-0.61,-71.17,0.36,-0.82,-0.32,1
11.54,-2.56,-71.04,0.34,-0.82,-0.29,1
12.21,-5.37,-70.37,0.33,-0.83,-0.27,1
13.61,-7.63,-69.09,0.31,-0.85,-0.24,1
14.89,-8.61,-68.12,0.30,-0.85,-0.24,1
15.93,-8.42,-66.59,0.28,-0.86,-0.25,1
15.93,-6.59,-64.21,0.28,-0.88,-0.28,1
14.59,-3.17,-61.89,0.28,-0.90,-0.30,1
12.51,0.92,-60.06,0.28,-0.89,-0.33,1
10.07,6.53,-58.53,0.29,-0.91,-0.33,1
6.41,12.45,-58.17,0.31,-0.92,-0.33,1
1.95,17.52,-58.78,0.31,-0.91,-0.33,1
-2.26,21.06,-60.12,0.32,-0.91,-0.30,1
-4.88,21.97,-61.40,0.31,-0.92,-0.26,1
-5.07,19.17,-62.19,0.30,-0.91,-0.23,1
-2.69,13.85,-61.77,0.28,-0.91,-0.23,1
1.83,8.30,-60.42,0.26,-0.94,-0.23,1
6.65,2.87,-59.20,0.23,-0.96,-0.25,1
10.25,-1.77,-56.76,0.20,-0.98,-0.28,1
11.23,-3.91,-52.06,0.18,-1.01,-0.30,1
10.19,-3.78,-47.85,0.15,-1.04,-0.32,1
6.65,1.10,-45.41,0.14,-1.05,-0.32,1
1.22,7.93,-44.68,0.14,-1.05,-0.30,1
-4.21,12.27,-44.80,0.13,-1.04,-0.28,1
-7.57,13.67,-44.49,0.13,-1.04,-0.27,1
-7.57,12.88,-43.46,0.12,-1.04,-0.27,1
-5.62,10.99,-41.02,0.12,-1.05,-0.28,1
-2.75,6.96,-37.66,0.12,-1.06,-0.28,1
-0.24,1.65,-33.69,0.11,-1.08,-0.30,1
1.53,-2.44,-29.85,0.10,-1.09,-0.31,1
1.77,-4.58,-26.79,0.09,-1.09,-0.31,1
0.49,-4.58,-23.68,0.08,-1.06,-0.30,1
-0.92,-2.99,-20.20,0.09,-1.06,-0.29,1
-1.65,-1.10,-17.94,0.10,-1.05,-0.28,1
-1.77,-0.18,-16.24,0.09,-1.04,-0.29,1
-1.16,0.92,-13.73,0.09,-1.04,-0.29,1
-0.12,2.50,-10.38,0.08,-1.06,-0.29,1
0.85,3.48,-6.53,0.08,-1.06,-0.30,1
2.50,3.91,-2.26,0.09,-1.06,-0.31,1
4.64,3.60,1.95,0.09,-1.06,-0.32,1
6.41,2.50,5.62,0.08,-1.06,-0.34,1
7.51,1.95,9.89,0.09,-1.05,-0.36,1
8.00,2.08,14.53,0.10,-1.05,-0.36,1
8.06,2.69,18.01,0.12,-1.05,-0.38,1
7.08,4.27,20.75,0.15,-1.04,-0.38,1
6.10,4.76,22.28,0.16,-1.03,-0.39,1
4.82,3.85,22.83,0.17,-1.02,-0.39,1
2.75,2.69,23.80,0.18,-1.02,-0.39,1
0.31,1.22,24.54,0.17,-1.03,-0.40,1
-2.32,0.12,24.72,0.16,-1.04,-0.39,1
-5.37,-0.43,25.27,0.15,-1.06,-0.39,1
-8.42,-0.12,26.18,0.12,-1.07,-0.39,1
-11.96,1.28,28.14,0.10,-1.08,-0.36,1
-14.65,3.36,31.19,0.08,-1.09,-0.34,1
-16.91,5.86,34.79,0.07,-1.08,-0.32,1
-18.07,8.61,38.82,0.07,-1.06,-0.30,1
-18.01,11.05,43.40,0.08,-1.05,-0.29,1
-17.52,12.45,47.55,0.09,-1.02,-0.28,1
-15.99,12.88,51.88,0.10,-1.03,-0.27,1
-14.65,13.67,55.60,0.13,-1.01,-0.28,1
-13.06,14.77,59.02,0.15,-1.00,-0.28,1
-11.66,15.87,61.46,0.18,-0.99,-0.30,1
-10.99,16.05,63.05,0.22,-0.97,-0.30,1
-11.23,13.31,63.11,0.23,-0.96,-0.30,1
-11.47,8.85,62.74,0.23,-0.94,-0.30,1
-11.72,6.10,63.17,0.24,-0.93,-0.29,1
-11.54,5.13,65.25,0.24,-0.92,-0.29,1
-11.72,6.23,68.05,0.25,-0.91,-0.29,1
-12.63,7.51,71.53,0.27,-0.90,-0.28,1
-13.49,6.77,74.10,0.28,-0.89,-0.27,1
-13.43,6.16,75.93,0.27,-0.88,-0.27,1
-13.37,7.93,77.45,0.27,-0.88,-0.28,1
-13.43,11.72,79.71,0.29,-0.87,-0.28,1
-14.40,16.30,80.87,0.32,-0.87,-0.29,1
-15.87,18.62,80.93,0.34,-0.84,-0.29,1
-17.70,19.10,80.81,0.37,-0.83,-0.28,1
-19.04,18.49,80.14,0.41,-0.81,-0.27,1
-19.41,17.03,77.45,0.43,-0.78,-0.27,1
-19.29,15.32,75.26,0.43,-0.76,-0.27,1
-19.96,13.85,75.62,0.44,-0.73,-0.26,1
-19.53,11.96,77.82,0.45,-0.72,-0.25,1
-17.46,11.35,80.81,0.45,-0.70,-0.24,1
-13.98,12.27,83.25,0.47,-0.70,-0.23,1
-10.56,12.94,83.86,0.49,-0.70,-0.24,1
-8.36,12.21,82.95,0.51,-0.70,-0.25,1
-8.06,10.19,81.67,0.53,-0.70,-0.25,1
-8.73,8.54,80.02,0.56,-0.69,-0.26,1
-10.56,7.81,77.45,0.59,-0.68,-0.27,1
-12.94,8.61,74.46,0.63,-0.67,-0.27,1
-15.87,10.31,70.13,0.66,-0.65,-0.28,1
-19.23,11.66,65.61,0.67,-0.63,-0.28,1
-22.58,13.12,62.62,0.67,-0.60,-0.27,1
-24.60,14.22,60.61,0.68,-0.59,-0.24,1
-24.72,13.79,58.11,0.68,-0.58,-0.23,1
-23.13,12.63,55.11,0.66,-0.56,-0.22,1
-20.51,11.17,54.02,0.65,-0.57,-0.19,1
-17.52,7.93,53.89,0.66,-0.59,-0.18,1
-14.77,3.48,52.73,0.65,-0.60,-0.18,1
-12.39,-1.16,50.05,0.64,-0.58,-0.17,1
-9.52,-4.21,48.77,0.63,-0.57,-0.16,1
-6.16,-5.19,48.95,0.62,-0.56,-0.19,1
-4.15,-3.23,51.51,0.62,-0.55,-0.21,1
-4.64,1.71,56.64,0.67,-0.53,-0.23,1
-5.62,5.80,59.51,0.75,-0.52,-0.23,1
-5.80,7.45,57.01,0.79,-0.50,-0.24,1
-4.94,7.08,52.06,0.79,-0.48,-0.25,1
-2.87,7.51,48.89,0.76,-0.50,-0.27,1
-1.89,10.31,47.49,0.75,-0.51,-0.27,1
-1.16,12.88,47.00,0.73,-0.52,-0.27,1
0.00,14.04,46.57,0.72,-0.54,-0.27,1
0.43,13.06,46.20,0.70,-0.55,-0.27,1
0.31,11.54,46.45,0.67,-0.56,-0.27,1
-0.85,10.50,47.91,0.66,-0.56,-0.27,1
-1.40,10.86,50.78,0.65,-0.55,-0.27,1
-0.92,13.92,54.81,0.65,-0.51,-0.26,1
1.71,18.55,60.49,0.68,-0.50,-0.25,1
6.16,21.85,65.00,0.74,-0.49,-0.24,1
11.17,20.63,66.53,0.78,-0.47,-0.25,1
