gyro_x,gyro_y,gyro_z,accel_x,accel_y,accel_z,eating
-27.10,14.65,4.09,0.96,-0.19,-0.14,0
-24.96,13.85,3.78,0.97,-0.17,-0.12,0
-21.97,10.86,3.48,0.96,-0.15,-0.14,0
-18.62,10.01,5.98,0.89,-0.19,-0.19,0
-17.52,14.40,8.67,0.99,-0.19,-0.15,0
-16.78,15.14,9.40,0.96,-0.18,-0.12,0
-15.32,11.41,9.70,0.97,-0.19,-0.15,0
-13.31,9.58,10.56,0.98,-0.20,-0.14,0
-12.70,6.23,8.91,1.00,-0.19,-0.14,0
-12.57,1.77,7.08,0.99,-0.17,-0.14,0
-11.72,-1.40,5.98,0.98,-0.17,-0.14,0
-9.83,-4.33,5.25,0.98,-0.17,-0.13,0
-7.87,-6.59,4.39,0.97,-0.18,-0.13,0
-6.23,-7.39,3.72,0.95,-0.18,-0.14,0
-5.68,-6.23,3.91,0.95,-0.18,-0.13,0
-5.74,-4.27,4.21,0.95,-0.18,-0.14,0
-6.16,-2.01,4.39,0.96,-0.17,-0.14,0
-5.25,-0.18,4.94,0.96,-0.17,-0.14,0
-4.27,1.89,5.55,0.96,-0.18,-0.15,0
-4.46,3.97,6.04,0.96,-0.19,-0.14,0
-5.07,4.88,5.92,0.95,-0.19,-0.14,0
-4.94,5.62,5.19,0.95,-0.19,-0.15,0
-5.07,6.77,4.70,0.96,-0.18,-0.15,0
-5.62,7.75,4.64,0.97,-0.18,-0.15,0
-5.55,7.75,4.27,0.97,-0.19,-0.14,0
-4.76,7.08,3.30,0.97,-0.19,-0.15,0
-4.58,6.84,2.26,0.96,-0.18,-0.15,0
-4.39,7.20,1.59,0.96,-0.19,-0.15,0
-4.33,7.08,1.22,0.96,-0.18,-0.15,0
-3.72,6.59,1.28,0.97,-0.19,-0.15,0
-3.36,5.68,0.55,0.97,-0.19,-0.14,0
-2.69,4.70,-0.18,0.95,-0.18,-0.15,0
-1.28,3.97,0.43,0.94,-0.18,-0.16,0
0.00,3.97,1.77,0.94,-0.18,-0.16,0
1.40,4.27,2.81,0.95,-0.19,-0.16,0
2.50,4.76,3.48,0.94,-0.19,-0.17,0
2.50,5.68,3.72,0.94,-0.18,-0.18,0
2.20,6.77,4.64,0.96,-0.18,-0.19,0
1.46,7.45,5.00,0.97,-0.18,-0.18,0
1.22,7.69,4.33,0.97,-0.18,-0.18,0
0.85,7.02,3.05,0.97,-0.19,-0.18,0
0.67,6.10,1.83,0.97,-0.18,-0.19,0
0.85,5.43,1.22,0.97,-0.18,-0.19,0
1.34,4.52,1.34,0.97,-0.18,-0.19,0
1.83,3.48,1.16,0.96,-0.18,-0.19,0
2.50,3.11,0.98,0.95,-0.18,-0.20,0
3.05,3.48,1.10,0.95,-0.18,-0.21,0
3.30,3.85,1.40,0.95,-0.18,-0.22,0
2.87,4.21,1.65,0.96,-0.19,-0.22,0
2.50,4.21,1.71,0.96,-0.18,-0.22,0
2.14,3.72,1.46,0.95,-0.19,-0.22,0
2.01,3.60,1.28,0.95,-0.19,-0.22,0
2.50,3.11,1.10,0.95,-0.19,-0.22,0
3.05,2.01,1.16,0.94,-0.20,-0.22,0
3.05,1.34,1.34,0.94,-0.20,-0.22,0
2.56,0.79,1.53,0.94,-0.20,-0.22,0
2.81,0.49,1.59,0.94,-0.20,-0.22,0
3.23,0.00,1.22,0.93,-0.20,-0.22,0
3.60,0.24,2.01,0.91,-0.19,-0.22,0
3.97,1.59,3.05,0.91,-0.18,-0.22,0
4.58,2.99,4.64,0.92,-0.19,-0.22,0
4.27,4.09,6.16,0.94,-0.17,-0.22,0
3.78,5.43,6.84,0.95,-0.17,-0.22,0
3.72,6.90,6.47,0.97,-0.16,-0.22,0
3.11,7.81,6.23,0.97,-0.18,-0.22,0
1.22,8.36,4.88,0.98,-0.18,-0.23,0
-1.34,9.09,3.60,0.97,-0.15,-0.23,0
-2.20,10.31,3.17,0.97,-0.15,-0.23,0
-1.28,11.90,2.93,0.98,-0.16,-0.23,0
-1.04,13.24,2.50,0.97,-0.16,-0.24,0
-2.14,15.69,2.38,0.97,-0.13,-0.23,0
-0.61,17.94,2.50,0.97,-0.15,-0.23,0
0.37,18.92,2.26,0.98,-0.17,-0.22,0
-0.37,18.74,1.53,0.97,-0.16,-0.22,0
-0.61,17.58,0.61,0.96,-0.15,-0.22,0
0.37,16.11,0.12,0.96,-0.15,-0.21,0
2.38,14.65,0.49,0.97,-0.17,-0.21,0
4.09,12.88,0.55,0.97,-0.18,-0.23,0
4.33,11.17,0.31,0.96,-0.18,-0.23,0
4.82,9.34,-0.31,0.95,-0.19,-0.24,0
5.25,7.32,-0.79,0.93,-0.18,-0.25,0
5.98,6.10,-0.73,0.94,-0.19,-0.25,0
5.62,4.94,0.31,0.92,-0.18,-0.25,0
5.37,3.97,1.77,0.92,-0.18,-0.26,0
5.74,3.91,2.56,0.91,-0.20,-0.26,0
4.88,4.33,2.01,0.92,-0.20,-0.26,0
3.78,4.46,1.71,0.92,-0.20,-0.27,0
3.72,4.58,2.14,0.92,-0.21,-0.27,0
3.30,4.27,3.36,0.90,-0.19,-0.27,0
3.42,5.19,3.54,0.91,-0.19,-0.28,0
4.03,6.84,3.91,0.92,-0.22,-0.28,0
3.17,7.20,3.97,0.93,-0.23,-0.29,0
0.31,6.04,3.23,0.93,-0.23,-0.31,0
-3.17,4.15,2.32,0.91,-0.20,-0.32,0
-4.82,3.23,2.38,0.90,-0.18,-0.31,0
-3.91,3.05,3.36,0.90,-0.19,-0.31,0
-3.66,3.48,3.11,0.90,-0.19,-0.30,0
-4.33,3.97,2.87,0.92,-0.19,-0.29,0
-5.00,3.85,6.35,0.92,-0.15,-0.28,0
-4.15,4.21,8.42,0.95,-0.14,-0.27,0
-2.20,2.56,8.85,0.98,-0.14,-0.27,0
-0.37,0.06,7.51,1.00,-0.12,-0.27,0
1.46,-3.30,5.49,1.00,-0.13,-0.26,0
2.69,-7.39,2.56,1.00,-0.14,-0.27,0
2.08,-10.56,0.06,0.99,-0.16,-0.28,0
-0.18,-12.21,-1.77,0.99,-0.17,-0.27,0
-3.78,-12.02,-2.93,0.97,-0.18,-0.27,0
-7.39,-10.38,-2.93,0.97,-0.19,-0.29,0
-11.41,-8.42,-4.09,0.98,-0.19,-0.30,0
-15.26,-8.18,-5.98,0.97,-0.19,-0.31,0
-18.37,-8.85,-7.69,0.95,-0.20,-0.34,0
-20.45,-9.46,-9.40,0.95,-0.21,-0.39,0
-21.91,-11.17,-10.62,0.94,-0.21,-0.43,0
-23.86,-17.09,-10.93,0.93,-0.22,-0.47,0
-26.37,-25.57,-10.07,0.90,-0.24,-0.50,0
-29.72,-31.62,-7.87,0.88,-0.26,-0.51,0
-33.26,-34.24,-5.07,0.90,-0.27,-0.50,0
-37.29,-36.38,-2.62,0.92,-0.28,-0.50,0
-40.77,-39.86,-1.59,0.95,-0.28,-0.53,0
-45.90,-45.29,-1.89,1.00,-0.26,-0.59,0
-54.99,-53.96,-5.86,1.08,-0.26,-0.66,0
-69.03,-68.12,-15.20,1.20,-0.22,-0.73,0
-87.89,-90.94,-32.41,1.33,-0.16,-0.77,0
-110.11,-123.78,-60.30,1.37,-0.12,-0.75,0
-133.24,-159.97,-92.04,1.23,-0.14,-0.67,0
-155.27,-184.94,-114.38,1.06,-0.17,-0.55,0
-174.93,-187.19,-122.07,0.96,-0.19,-0.36,0
-187.01,-174.01,-118.65,0.93,-0.09,-0.17,0
-186.77,-158.87,-109.56,1.01,-0.03,0.04,0
-176.03,-153.81,-103.27,1.17,0.02,0.22,0
-162.05,-168.03,-104.61,1.21,0.14,0.36,0
-146.36,-193.73,-103.15,1.17,0.38,0.46,0
-127.32,-208.07,-86.24,1.22,0.50,0.60,0
-106.93,-202.39,-65.25,1.37,0.54,0.83,0
-85.39,-181.03,-56.76,1.52,0.63,1.10,0
-59.08,-150.63,-62.74,1.62,0.64,1.32,0
-33.08,-116.58,-82.95,1.61,0.59,1.49,0
-10.19,-84.96,-113.95,1.47,0.52,1.58,0
10.25,-56.70,-144.29,1.28,0.50,1.65,0
33.33,-34.42,-162.66,1.09,0.46,1.69,0
60.55,-20.69,-167.11,0.89,0.42,1.69,0
92.16,-16.30,-162.60,0.70,0.38,1.61,0
126.10,-16.54,-151.00,0.51,0.29,1.46,0
158.02,-15.69,-137.45,0.35,0.18,1.28,0
183.41,-11.17,-123.54,0.20,0.08,1.09,0
201.42,-2.81,-110.23,0.10,-0.01,0.95,0
215.58,4.94,-97.96,0.04,-0.05,0.83,0
228.70,6.16,-85.94,-0.05,-0.07,0.71,0
244.51,5.00,-72.39,-0.14,-0.16,0.58,0
259.95,7.81,-59.94,-0.21,-0.31,0.44,0
269.90,15.14,-49.13,-0.31,-0.44,0.25,0
275.51,29.11,-39.12,-0.43,-0.61,-0.01,0
276.73,55.60,-30.21,-0.57,-0.80,-0.26,0
268.25,89.48,-20.32,-0.69,-0.93,-0.52,0
252.56,123.84,-6.04,-0.78,-1.02,-0.77,0
234.86,157.23,16.66,-0.81,-1.15,-1.01,0
222.35,189.03,45.10,-0.81,-1.31,-1.18,0
215.45,211.73,75.20,-0.77,-1.33,-1.32,0
208.68,213.13,109.80,-0.64,-1.29,-1.52,0
203.19,189.94,144.78,-0.49,-1.22,-1.79,0
193.42,141.97,171.02,-0.34,-1.11,-2.02,0
173.34,80.75,187.26,-0.19,-1.07,-2.23,0
138.24,22.71,198.24,-0.11,-1.00,-2.37,0
94.18,-13.67,210.08,-0.02,-0.86,-2.37,0
50.35,-28.56,222.78,0.13,-0.74,-2.21,0
13.37,-33.94,231.20,0.31,-0.63,-1.98,0
-13.98,-40.22,231.63,0.51,-0.49,-1.71,0
-35.03,-52.80,224.49,0.66,-0.36,-1.46,0
-50.72,-67.63,213.81,0.75,-0.18,-1.23,0
-62.38,-76.66,206.67,0.82,-0.02,-1.06,0
-74.58,-74.89,203.92,0.92,0.11,-0.86,0
-84.96,-65.98,201.23,1.03,0.22,-0.68,0
-89.29,-56.52,193.48,1.12,0.29,-0.51,0
-87.59,-51.82,178.16,1.33,0.43,-0.28,0
-83.92,-62.93,161.62,1.24,0.30,-0.25,0
-84.17,-73.06,130.98,1.25,0.32,-0.21,0
-95.95,-75.81,102.72,1.23,0.57,-0.06,0
-103.27,-74.77,93.08,1.21,0.56,0.00,0
-108.83,-63.48,85.57,1.36,0.66,0.21,0
-104.80,-56.03,83.62,1.43,0.64,0.34,0
-94.18,-49.74,75.87,1.48,0.58,0.38,0
-84.47,-39.79,62.93,1.55,0.51,0.42,0
-75.99,-32.23,46.51,1.56,0.44,0.43,0
-70.25,-26.49,30.52,1.55,0.36,0.44,0
-64.45,-21.85,16.66,1.52,0.28,0.44,0
-58.17,-19.96,5.00,1.48,0.21,0.42,0
-52.19,-21.06,-3.78,1.44,0.14,0.38,0
-47.91,-23.32,-10.31,1.38,0.10,0.34,0
-44.37,-23.68,-15.63,1.31,0.10,0.30,0
-40.34,-22.16,-18.01,1.26,0.10,0.29,0
-34.67,-21.91,-19.59,1.19,0.07,0.26,0
-29.42,-22.64,-24.05,1.14,0.07,0.23,0
-25.09,-23.93,-28.02,1.09,0.09,0.19,0
-21.55,-22.95,-30.15,1.05,0.09,0.14,0
-17.88,-17.70,-31.31,1.04,0.05,0.10,0
-15.69,-11.11,-33.87,1.04,0.00,0.06,0
-15.56,-6.59,-37.48,1.02,-0.05,0.04,0
-16.48,-4.82,-40.77,1.01,-0.09,0.02,0
-17.58,-4.09,-42.54,1.00,-0.12,0.01,0
-17.21,-1.89,-42.11,1.00,-0.14,0.00,0
-15.69,1.53,-40.65,1.02,-0.15,-0.00,0
-12.57,3.60,-39.43,1.04,-0.15,-0.02,0
-9.70,3.60,-37.96,1.07,-0.14,-0.02,0
-7.26,1.04,-36.93,1.09,-0.15,-0.03,0
-5.19,-3.23,-38.21,1.10,-0.13,-0.03,0
-3.48,-6.90,-40.16,1.10,-0.13,-0.03,0
-1.83,-9.28,-43.82,1.08,-0.15,-0.04,0
-0.37,-10.25,-48.03,1.05,-0.16,-0.05,0
-0.31,-10.19,-51.27,1.04,-0.16,-0.06,0
-1.04,-10.38,-53.34,1.03,-0.19,-0.07,0
-1.65,-11.29,-56.64,1.01,-0.22,-0.08,0
-2.62,-12.63,-60.18,0.98,-0.22,-0.11,0
-4.52,-12.63,-61.40,0.97,-0.22,-0.14,0
-6.47,-10.86,-61.52,1.00,-0.25,-0.16,0
-8.00,-12.63,-63.54,1.03,-0.28,-0.18,0
-8.54,-19.71,-68.66,1.01,-0.32,-0.20,0
-11.60,-28.99,-74.10,0.97,-0.34,-0.22,0
-15.87,-35.03,-76.84,0.93,-0.37,-0.23,0
-19.71,-36.74,-77.76,0.93,-0.38,-0.23,0
-23.80,-37.35,-78.00,0.93,-0.37,-0.20,0
-26.92,-39.43,-77.45,0.92,-0.36,-0.19,0
-29.05,-41.56,-77.64,0.94,-0.35,-0.17,0
-31.62,-44.86,-79.59,0.99,-0.34,-0.14,0
-33.45,-52.31,-85.75,1.02,-0.35,-0.11,0
-34.42,-65.12,-97.05,1.01,-0.38,-0.11,0
-36.62,-78.86,-110.47,0.92,-0.40,-0.14,0
-41.50,-86.36,-119.26,0.80,-0.43,-0.15,0
-48.40,-83.62,-119.63,0.70,-0.50,-0.12,0
-56.09,-71.47,-116.33,0.66,-0.57,-0.07,0
-62.19,-54.75,-111.33,0.65,-0.60,-0.00,0
-65.92,-39.12,-105.29,0.65,-0.62,0.06,0
-67.93,-29.66,-99.00,0.65,-0.62,0.13,0
-66.47,-27.34,-94.36,0.64,-0.63,0.19,0
-62.81,-30.52,-91.00,0.61,-0.65,0.24,0
-57.98,-37.78,-89.05,0.57,-0.66,0.29,0
-52.61,-47.36,-87.95,0.52,-0.67,0.33,0
-47.49,-56.88,-87.52,0.47,-0.69,0.36,0
-43.27,-64.21,-87.71,0.40,-0.71,0.38,0
-40.04,-67.38,-86.79,0.28,-0.71,0.44,0
-34.85,-64.82,-80.81,0.14,-0.70,0.51,0
-23.32,-52.67,-67.02,0.06,-0.77,0.57,0
-11.29,-33.39,-48.28,0.02,-0.82,0.63,0
-1.59,-13.37,-27.71,0.01,-0.82,0.67,0
7.45,2.62,-6.65,-0.00,-0.80,0.70,0
17.15,14.83,13.61,0.01,-0.80,0.71,0
27.59,23.99,32.23,0.02,-0.79,0.72,0
38.39,30.27,48.58,0.03,-0.79,0.68,0
48.65,36.87,63.72,0.02,-0.79,0.60,0
57.07,48.83,78.67,0.02,-0.81,0.50,0
63.48,68.54,93.75,0.03,-0.83,0.40,0
67.08,93.81,107.97,0.06,-0.80,0.31,0
70.13,120.36,122.25,0.09,-0.77,0.23,0
73.61,145.87,137.39,0.13,-0.73,0.14,0
76.90,169.13,154.36,0.16,-0.65,0.06,0
81.05,189.76,174.80,0.23,-0.59,0.01,0
86.12,204.47,198.24,0.31,-0.50,-0.02,0
94.24,210.14,222.41,0.40,-0.34,-0.06,0
109.44,206.42,246.40,0.53,-0.21,-0.11,0
128.54,195.62,267.76,0.73,-0.05,-0.20,0
144.71,176.27,281.62,1.01,0.11,-0.34,0
152.04,144.23,278.69,1.39,0.28,-0.52,0
146.73,97.84,251.89,1.85,0.55,-0.69,0
134.70,46.14,212.34,2.03,0.64,-0.80,0
98.69,-8.91,157.47,2.30,0.98,-0.90,0
55.05,-50.78,101.56,2.48,1.23,-0.82,0
10.19,-71.53,57.50,2.68,1.34,-0.71,0
-25.51,-74.28,11.41,2.80,1.26,-0.55,0
-43.09,-59.33,-42.11,2.76,1.04,-0.36,0
-45.53,-37.66,-99.49,2.58,0.84,-0.25,0
-41.50,-18.62,-146.61,2.32,0.76,-0.21,0
-36.38,-9.46,-175.90,2.05,0.63,-0.20,0
-31.01,-12.70,-197.08,1.75,0.48,-0.21,0
-27.47,-24.11,-217.10,1.41,0.36,-0.22,0
-26.49,-36.56,-232.91,1.07,0.25,-0.22,0
-26.79,-46.39,-243.10,0.74,0.13,-0.20,0
-28.26,-53.22,-246.52,0.44,-0.01,-0.17,0
-32.41,-55.97,-242.00,0.18,-0.15,-0.14,0
-37.54,-52.98,-231.08,-0.04,-0.33,-0.06,0
-40.04,-44.62,-216.37,-0.17,-0.60,0.02,0
-40.47,-30.88,-200.26,-0.27,-0.89,0.08,0
-38.70,-13.49,-183.41,-0.37,-1.17,0.08,0
-35.46,3.78,-168.09,-0.50,-1.42,0.07,0
-31.86,16.66,-151.43,-0.64,-1.59,0.04,0
-32.47,23.50,-129.33,-0.86,-1.94,-0.08,0
-37.41,31.86,-109.80,-1.06,-2.18,-0.23,0
-52.67,48.52,-85.88,-1.31,-2.18,-0.27,0
-70.98,61.83,-49.93,-1.49,-2.13,-0.25,0
-84.72,69.40,-3.85,-1.55,-2.03,-0.21,0
-91.61,79.65,49.01,-1.55,-1.80,-0.15,0
-88.62,93.63,104.00,-1.46,-1.53,-0.09,0
-75.38,104.19,156.62,-1.28,-1.29,-0.03,0
-55.97,104.55,203.49,-1.05,-0.99,0.02,0
-28.93,90.45,245.48,-0.85,-0.69,0.02,0
1.28,65.19,286.56,-0.60,-0.35,-0.01,0
33.02,34.67,330.38,-0.26,0.04,-0.02,0
65.92,-0.61,375.12,0.20,0.54,-0.02,0
93.57,-39.12,420.29,0.90,1.35,-0.03,0
108.52,-76.72,459.17,1.66,1.88,-0.30,0
113.89,-86.18,451.84,2.64,2.03,-0.30,0
64.76,-73.43,373.54,3.41,2.18,-0.36,0
-5.31,-29.97,233.70,3.88,2.37,-0.11,0
-75.56,32.84,91.13,3.96,2.64,0.18,0
-104.13,89.78,-7.45,3.97,2.51,0.53,0
-89.90,108.76,-64.88,3.90,2.12,0.74,0
-36.93,92.65,-103.88,3.64,1.54,0.67,0
25.63,63.35,-140.44,3.14,1.10,0.33,0
64.21,39.31,-167.97,2.54,0.91,-0.04,0
72.20,28.44,-183.96,2.01,0.86,-0.30,0
62.68,25.94,-195.37,1.60,0.82,-0.43,0
48.95,23.01,-206.79,1.24,0.72,-0.48,0
38.57,13.43,-221.92,0.88,0.58,-0.50,0
29.66,-1.53,-237.30,0.49,0.44,-0.50,0
22.58,-18.43,-246.40,0.14,0.26,-0.48,0
18.19,-35.46,-245.54,-0.14,-0.01,-0.41,0
15.93,-50.17,-239.32,-0.32,-0.33,-0.32,0
16.97,-60.42,-229.68,-0.51,-0.74,-0.23,0
23.38,-59.94,-216.55,-0.69,-1.11,-0.22,0
29.30,-49.99,-195.86,-0.87,-1.58,-0.24,0
32.78,-35.77,-172.24,-1.09,-2.08,-0.30,0
29.72,-21.48,-145.87,-1.36,-2.44,-0.35,0
18.07,-10.80,-108.40,-1.59,-2.60,-0.39,0
3.54,-7.02,-55.11,-1.72,-2.67,-0.38,0
-6.96,-8.30,2.20,-1.75,-2.60,-0.36,0
-11.17,-10.86,55.11,-1.74,-2.40,-0.36,0
-10.86,-10.44,106.08,-1.65,-2.13,-0.35,0
-11.05,-9.77,156.01,-1.49,-1.82,-0.34,0
-12.70,-10.56,202.21,-1.30,-1.51,-0.33,0
-15.14,-11.72,239.93,-1.09,-1.19,-0.31,0
-18.07,-11.84,271.55,-0.86,-0.83,-0.29,0
-22.77,-9.70,302.67,-0.58,-0.39,-0.26,0
-30.27,-4.39,333.07,-0.22,0.16,-0.18,0
-41.32,7.81,363.95,0.27,0.94,-0.06,0
-56.88,30.82,397.09,1.06,1.87,-0.07,0
-65.67,69.40,411.93,2.12,2.51,-0.04,0
-60.55,108.46,364.26,3.23,2.65,0.09,0
-55.54,121.70,251.34,3.94,2.66,0.31,0
-60.49,79.90,114.50,3.93,2.73,0.38,0
-52.61,34.67,9.46,3.69,2.63,0.32,0
-32.78,15.44,-36.56,3.49,2.21,0.27,0
-2.56,20.57,-65.73,3.39,1.69,0.15,0
28.56,36.44,-93.99,3.08,1.21,-0.06,0
46.69,43.27,-127.44,2.70,0.96,-0.35,0
47.24,40.65,-157.90,2.20,0.83,-0.58,0
31.80,30.58,-179.99,1.75,0.75,-0.73,0
11.90,17.94,-196.53,1.36,0.63,-0.78,0
-6.23,7.39,-210.02,1.00,0.48,-0.79,0
-21.12,-0.43,-222.23,0.65,0.35,-0.77,0
-34.30,-6.96,-229.61,0.35,0.18,-0.69,0
-44.80,-14.53,-229.55,0.12,-0.02,-0.55,0
-50.17,-25.76,-223.57,-0.03,-0.20,-0.38,0
-45.84,-37.29,-210.45,-0.12,-0.41,-0.21,0
-32.23,-47.12,-193.05,-0.17,-0.65,-0.09,0
-14.34,-53.53,-173.58,-0.21,-0.86,-0.02,0
2.14,-55.60,-150.21,-0.21,-1.10,0.00,0
16.17,-53.53,-125.85,-0.24,-1.33,0.00,0
24.72,-49.19,-102.66,-0.25,-1.48,-0.01,0
28.26,-45.35,-78.86,-0.25,-1.57,-0.01,0
28.14,-43.82,-55.42,-0.26,-1.61,-0.02,0
26.00,-42.05,-34.79,-0.26,-1.59,-0.03,0
21.79,-39.61,-17.09,-0.25,-1.55,-0.03,0
14.65,-35.71,-1.65,-0.24,-1.48,-0.03,0
4.39,-29.72,13.18,-0.21,-1.40,-0.04,0
-6.84,-19.90,27.77,-0.16,-1.31,-0.05,0
-17.76,-6.59,41.50,-0.11,-1.20,-0.05,0
-26.37,8.97,56.09,-0.03,-1.09,-0.07,0
-31.92,24.96,71.96,0.07,-0.99,-0.09,0
-34.42,38.39,87.46,0.19,-0.90,-0.11,0
-34.06,47.36,101.44,0.33,-0.79,-0.12,0
-30.52,50.05,113.22,0.44,-0.67,-0.14,0
-23.56,46.69,122.56,0.55,-0.57,-0.17,0
-14.53,39.98,129.94,0.67,-0.48,-0.19,0
-6.35,28.93,134.83,0.79,-0.35,-0.20,0
3.60,15.14,137.33,0.91,-0.24,-0.22,0
13.24,0.12,137.76,1.06,-0.14,-0.23,0
19.47,-16.36,134.46,1.23,-0.07,-0.20,0
23.38,-36.68,125.55,1.34,0.04,-0.19,0
23.50,-56.76,116.21,1.43,0.19,-0.17,0
19.17,-71.29,106.57,1.53,0.26,-0.14,0
11.90,-77.27,90.64,1.60,0.32,-0.14,0
1.83,-72.45,71.17,1.64,0.48,-0.15,0
-12.82,-56.58,54.44,1.75,0.60,-0.14,0
-30.15,-36.62,33.26,1.91,0.66,-0.07,0
-46.39,-22.16,2.50,2.07,0.75,-0.01,0
-58.11,-19.59,-34.48,2.11,0.77,0.04,0
-64.82,-23.99,-73.85,2.08,0.69,0.10,0
-68.97,-31.07,-109.62,1.94,0.56,0.16,0
-68.30,-37.96,-139.71,1.70,0.41,0.19,0
-63.60,-40.95,-161.13,1.43,0.25,0.23,0
-55.79,-40.89,-173.46,1.18,0.09,0.27,0
-46.39,-40.16,-177.61,0.90,-0.08,0.32,0
-34.12,-38.33,-175.48,0.64,-0.27,0.35,0
-19.10,-33.63,-167.79,0.39,-0.47,0.35,0
-5.37,-26.12,-154.24,0.15,-0.67,0.33,0
7.26,-18.01,-138.00,-0.08,-0.95,0.29,0
18.55,-9.52,-122.25,-0.34,-1.24,0.21,0
23.44,2.01,-104.80,-0.62,-1.59,0.09,0
18.25,21.00,-87.40,-0.88,-1.95,0.02,0
5.98,42.60,-67.81,-1.13,-2.19,0.03,0
-6.10,54.69,-39.73,-1.33,-2.18,0.08,0
-14.28,51.82,7.14,-1.45,-2.04,0.20,0
-11.72,40.22,69.27,-1.52,-1.83,0.26,0
-0.31,33.75,136.60,-1.42,-1.60,0.32,0
22.52,35.83,197.39,-1.25,-1.37,0.31,0
48.52,42.85,248.17,-1.01,-1.11,0.26,0
70.92,46.69,291.63,-0.74,-0.76,0.20,0
90.45,37.72,330.81,-0.43,-0.26,0.12,0
107.60,16.48,369.08,-0.01,0.37,0.03,0
117.31,-9.52,404.54,0.57,1.15,-0.06,0
105.83,-26.55,429.02,1.43,2.02,-0.23,0
75.81,-12.21,420.78,2.44,2.38,-0.34,0
31.86,37.41,338.26,3.31,2.46,-0.29,0
-26.18,95.89,195.13,3.72,2.72,-0.08,0
-68.85,128.48,61.52,3.73,2.91,0.16,0
-65.19,125.43,-14.47,3.67,2.64,0.32,0
-14.53,98.27,-49.50,3.56,2.18,0.27,0
50.60,62.99,-72.45,3.40,1.67,-0.00,0
103.45,32.78,-96.86,3.06,1.23,-0.44,0
119.87,15.01,-125.00,2.62,1.02,-0.86,0
98.14,11.35,-150.63,2.20,0.94,-1.07,0
58.72,14.59,-175.05,1.84,0.91,-1.06,0
23.80,14.16,-201.05,1.50,0.83,-0.94,0
2.20,2.01,-226.56,1.11,0.75,-0.82,0
-9.34,-19.04,-244.63,0.71,0.66,-0.66,0
-10.80,-44.98,-250.55,0.36,0.50,-0.50,0
-0.98,-72.14,-246.52,0.07,0.29,-0.36,0
17.09,-92.47,-235.84,-0.16,0.02,-0.24,0
39.73,-103.70,-219.97,-0.35,-0.31,-0.16,0
60.67,-107.30,-202.82,-0.50,-0.69,-0.10,0
78.98,-104.25,-183.53,-0.63,-1.09,-0.11,0
90.64,-96.56,-161.99,-0.82,-1.67,-0.25,0
86.24,-81.18,-142.27,-0.98,-2.23,-0.46,0
59.51,-56.40,-119.81,-1.18,-2.66,-0.62,0
20.87,-28.14,-93.75,-1.41,-2.90,-0.69,0
-18.25,-10.13,-62.26,-1.56,-3.00,-0.66,0
-52.55,-7.87,-22.03,-1.66,-2.88,-0.56,0
-78.92,-14.89,27.83,-1.72,-2.59,-0.40,0
-90.88,-21.61,82.34,-1.65,-2.22,-0.17,0
-85.21,-27.10,135.38,-1.49,-1.86,0.02,0
-68.24,-35.28,184.63,-1.35,-1.49,0.10,0
-49.44,-41.44,228.52,-1.21,-1.17,0.11,0
-35.16,-41.99,266.11,-1.04,-0.84,0.10,0
-27.83,-37.72,298.65,-0.85,-0.48,0.09,0
-27.10,-29.42,328.80,-0.62,0.06,0.13,0
-31.25,-17.52,363.53,-0.26,0.71,0.28,0
-34.18,-6.96,393.74,0.33,1.23,0.44,0
-33.57,1.71,399.54,1.08,1.80,0.64,0
-25.63,4.58,371.95,1.79,2.24,0.84,0
-2.26,-10.62,306.03,2.24,2.46,0.93,0
24.23,-44.13,224.55,2.40,2.70,0.92,0
43.15,-74.95,165.71,2.47,2.68,0.90,0
57.68,-76.66,129.88,2.63,2.43,0.92,0
64.21,-50.72,98.94,2.81,2.23,0.97,0
59.69,-7.75,63.96,2.95,2.04,1.04,0
57.01,42.42,22.16,2.97,1.85,1.03,0
58.35,83.86,-18.80,2.90,1.56,0.97,0
61.52,107.36,-59.33,2.73,1.24,0.86,0
65.12,116.33,-98.75,2.44,1.03,0.73,0
69.15,115.84,-128.78,2.04,0.96,0.58,0
74.40,111.88,-145.57,1.65,0.93,0.44,0
83.01,108.09,-154.24,1.32,0.85,0.34,0
95.03,103.70,-160.10,1.03,0.76,0.19,0
111.69,99.91,-161.74,0.77,0.63,0.03,0
126.83,95.15,-158.39,0.52,0.48,-0.14,0
137.45,89.29,-149.05,0.31,0.32,-0.25,0
146.18,83.98,-132.87,0.14,0.15,-0.29,0
158.02,80.44,-110.17,-0.00,-0.01,-0.29,0
177.25,78.74,-78.25,-0.11,-0.15,-0.41,0
197.33,82.70,-37.90,-0.20,-0.43,-0.71,0
207.46,105.59,0.49,-0.21,-0.56,-0.92,0
202.09,132.93,39.37,-0.18,-0.59,-1.15,0
195.62,157.90,77.03,-0.13,-0.72,-1.37,0
179.93,179.57,102.84,-0.01,-0.65,-1.49,0
166.44,183.78,124.21,0.07,-0.61,-1.58,0
156.86,169.01,139.71,0.18,-0.55,-1.70,0
148.38,137.39,147.40,0.32,-0.51,-1.76,0
140.75,91.86,146.91,0.48,-0.49,-1.84,0
130.19,36.44,136.66,0.68,-0.45,-1.98,0
109.01,-19.53,115.42,0.83,-0.47,-2.07,0
72.94,-71.17,85.94,0.86,-0.45,-2.09,0
23.93,-114.75,57.19,0.78,-0.37,-2.06,0
-31.56,-142.70,37.84,0.70,-0.27,-1.96,0
-85.33,-152.34,28.93,0.68,-0.15,-1.77,0
-134.16,-151.18,27.59,0.70,0.04,-1.51,0
-176.03,-147.22,29.42,0.77,0.30,-1.20,0
-207.82,-145.87,32.17,0.91,0.56,-0.80,0
-226.32,-152.10,29.85,1.10,0.85,-0.36,0
-227.23,-169.56,18.92,1.30,1.14,-0.01,0
-213.68,-195.07,-1.59,1.53,1.33,0.28,0
-200.07,-225.40,-32.96,1.75,1.50,0.54,0
-184.51,-260.68,-72.63,1.92,1.54,0.76,0
-171.20,-295.90,-121.70,1.92,1.46,0.95,0
-165.10,-324.16,-171.63,1.79,1.34,1.15,0
-162.78,-336.30,-216.80,1.61,1.22,1.39,0
-159.12,-329.77,-251.95,1.43,1.11,1.64,0
-148.07,-310.79,-280.94,1.21,1.05,1.84,0
-126.46,-281.49,-302.98,0.93,1.06,1.97,0
-95.70,-240.48,-310.18,0.65,1.01,2.05,0
-57.62,-188.66,-304.50,0.41,0.90,2.08,0
-14.34,-133.42,-287.96,0.19,0.73,2.06,0
32.47,-79.47,-263.43,-0.02,0.47,1.96,0
77.09,-29.30,-235.78,-0.26,0.23,1.76,0
118.35,17.76,-206.79,-0.42,0.01,1.53,0
156.43,58.04,-176.64,-0.51,-0.21,1.36,0
191.83,79.53,-146.24,-0.65,-0.39,1.12,0
223.88,85.08,-112.12,-0.82,-0.59,0.78,0
246.58,90.21,-69.58,-1.01,-0.80,0.40,0
256.29,99.91,-20.26,-1.15,-1.03,-0.05,0
250.37,117.55,34.85,-1.18,-1.26,-0.48,0
232.79,144.17,93.32,-1.18,-1.35,-0.82,0
214.17,174.01,152.22,-1.11,-1.40,-1.10,0
201.35,198.30,211.30,-0.96,-1.40,-1.42,0
192.93,213.01,266.48,-0.77,-1.28,-1.65,0
186.46,209.17,313.90,-0.48,-1.09,-1.83,0
182.50,181.34,348.69,-0.12,-0.91,-2.07,0
176.57,134.83,362.79,0.33,-0.75,-2.32,0
157.23,77.88,346.68,0.66,-0.62,-2.58,0
122.01,25.02,306.88,0.92,-0.51,-2.70,0
60.79,-31.19,261.05,1.07,-0.31,-2.68,0
-10.31,-89.97,223.94,1.06,-0.01,-2.51,0
-71.72,-137.02,196.78,1.08,0.36,-2.18,0
-113.95,-167.24,179.08,1.17,0.81,-1.70,0
-136.05,-190.25,166.32,1.31,1.17,-1.20,0
-138.98,-209.29,151.86,1.46,1.47,-0.72,0
-126.77,-229.25,133.67,1.58,1.73,-0.29,0
-105.47,-252.75,116.27,1.64,2.00,0.03,0
-95.83,-269.78,99.73,1.80,2.05,0.22,0
-106.99,-258.18,70.37,2.00,1.91,0.43,0
-135.93,-218.32,17.94,2.15,1.89,0.68,0
-173.65,-171.20,-43.95,2.26,1.92,0.99,0
-205.14,-139.95,-102.66,2.32,1.86,1.33,0
-218.26,-129.94,-154.17,2.24,1.77,1.71,0
-210.63,-136.84,-195.74,2.04,1.64,2.08,0
-182.80,-152.77,-229.43,1.76,1.46,2.31,0
-142.27,-166.87,-255.37,1.35,1.27,2.37,0
-100.04,-165.89,-272.28,0.93,1.14,2.37,0
-62.13,-144.96,-276.55,0.55,1.06,2.29,0
-29.97,-103.39,-269.41,0.28,0.99,2.18,0
-2.62,-45.96,-256.35,0.09,0.90,2.04,0
23.01,14.22,-242.68,-0.04,0.80,1.90,0
46.88,67.57,-231.32,-0.13,0.65,1.75,0
68.48,105.29,-222.72,-0.20,0.51,1.59,0
89.72,124.57,-215.39,-0.27,0.41,1.46,0
117.07,127.56,-205.63,-0.35,0.28,1.34,0
152.59,119.57,-190.25,-0.45,0.12,1.19,0
192.14,108.64,-166.93,-0.55,-0.03,1.01,0
232.06,100.28,-137.45,-0.65,-0.26,0.76,0
266.91,103.21,-101.32,-0.78,-0.53,0.36,0
283.51,129.82,-59.45,-0.90,-0.76,-0.11,0
278.44,181.27,-13.06,-0.97,-0.98,-0.57,0
253.11,244.26,33.75,-0.92,-1.10,-0.86,0
220.64,297.49,78.31,-0.86,-1.06,-0.96,0
210.75,322.27,119.93,-0.73,-1.23,-1.11,0
235.23,314.94,155.46,-0.78,-1.09,-1.29,0
262.15,263.67,200.74,-0.71,-0.97,-1.55,0
279.24,191.16,252.75,-0.60,-1.13,-2.16,0
280.52,152.65,288.21,-0.59,-1.19,-2.85,0
240.30,164.49,300.35,-0.36,-1.20,-3.31,0
152.22,180.97,298.16,-0.13,-1.10,-3.41,0
52.73,167.72,289.79,0.10,-0.81,-3.32,0
-27.89,115.36,275.76,0.37,-0.55,-3.12,0
-85.82,31.25,258.67,0.42,-0.38,-2.98,0
-130.62,-51.76,237.61,0.38,-0.14,-2.88,0
-170.78,-104.37,220.21,0.38,0.11,-2.65,0
-216.31,-126.71,206.48,0.45,0.39,-2.25,0
-257.02,-133.06,194.58,0.56,0.88,-1.73,0
-273.01,-136.47,188.05,0.76,1.53,-1.14,0
-250.12,-149.48,189.76,1.05,2.00,-0.58,0
-193.36,-178.89,187.44,1.39,2.42,-0.20,0
-128.23,-219.91,178.34,1.82,2.73,0.01,0
-77.45,-261.17,155.21,2.32,2.67,0.09,0
-59.02,-292.18,100.10,2.72,2.49,0.29,0
-77.03,-315.67,17.64,2.81,2.42,0.61,0
-112.30,-329.10,-65.19,2.71,2.31,1.03,0
-143.31,-328.86,-139.65,2.57,2.12,1.57,0
-156.01,-320.19,-204.10,2.30,1.99,2.10,0
-139.83,-305.11,-250.98,1.94,1.85,2.41,0
-93.93,-279.54,-278.14,1.49,1.68,2.43,0
-37.84,-242.13,-286.01,1.06,1.52,2.26,0
11.96,-192.87,-273.86,0.73,1.37,2.11,0
57.31,-139.22,-249.76,0.49,1.19,1.97,0
98.63,-92.71,-228.52,0.27,1.00,1.78,0
133.18,-55.66,-215.64,0.03,0.88,1.55,0
161.68,-26.49,-206.48,-0.22,0.70,1.28,0
184.69,1.28,-196.23,-0.42,0.42,1.02,0
200.26,29.91,-186.95,-0.56,0.15,0.83,0
212.04,53.53,-176.51,-0.67,-0.06,0.69,0
227.78,68.12,-160.40,-0.77,-0.26,0.53,0
250.55,76.84,-135.68,-0.86,-0.54,0.19,0
272.03,92.35,-98.14,-0.92,-0.87,-0.22,0
277.77,117.55,-48.10,-0.93,-1.05,-0.61,0
270.26,151.12,11.84,-0.98,-1.33,-1.05,0
257.93,197.88,69.40,-0.96,-1.74,-1.51,0
240.78,248.29,115.66,-0.91,-1.81,-1.74,0
220.40,269.65,161.68,-0.82,-1.58,-1.75,0
213.62,241.88,214.66,-0.71,-1.41,-1.88,0
226.81,180.11,264.22,-0.56,-1.37,-2.15,0
239.32,114.69,298.65,-0.29,-1.32,-2.47,0
234.62,66.53,310.61,-0.05,-1.10,-2.65,0
207.03,23.56,305.66,0.39,-0.80,-2.74,0
158.45,-36.68,284.79,0.80,-0.69,-2.67,0
99.00,-104.68,241.76,0.98,-0.49,-2.43,0
27.10,-177.00,191.47,0.92,-0.08,-2.06,0
-39.12,-236.33,157.65,0.80,0.39,-1.61,0
-92.65,-267.64,142.27,0.76,0.93,-1.04,0
-131.65,-269.17,135.93,0.91,1.42,-0.48,0
-150.63,-249.21,129.27,1.23,1.83,0.13,0
-148.38,-226.14,117.68,1.64,2.09,0.72,0
-132.26,-214.72,93.38,2.00,2.36,1.26,0
-106.45,-210.45,60.24,2.29,2.48,1.59,0
-80.38,-198.18,16.30,2.48,2.42,1.73,0
-61.65,-166.69,-35.40,2.48,2.17,1.78,0
-56.15,-120.24,-87.95,2.45,1.92,1.81,0
-67.69,-71.29,-134.40,2.40,1.68,1.92,0
-65.55,-33.87,-175.42,2.19,1.36,1.96,0
-48.16,-15.93,-212.71,1.82,1.13,1.87,0
-26.61,-12.08,-237.92,1.37,0.97,1.67,0
-4.70,-9.52,-250.43,0.89,0.79,1.42,0
18.68,1.71,-253.60,0.47,0.52,1.15,0
40.10,23.07,-250.18,0.08,0.25,0.90,0
55.91,45.41,-239.01,-0.26,-0.01,0.66,0
67.69,64.09,-220.40,-0.59,-0.39,0.40,0
76.60,80.44,-196.23,-0.86,-0.91,0.07,0
76.90,98.57,-166.20,-1.04,-1.42,-0.29,0
63.54,116.33,-130.13,-1.16,-1.87,-0.64,0
38.02,132.69,-92.10,-1.25,-2.34,-1.10,0
5.37,157.47,-58.41,-1.20,-2.77,-1.42,0
-35.34,182.56,-31.07,-1.19,-2.73,-1.56,0
-78.74,181.64,3.30,-1.06,-2.52,-1.70,0
-111.76,165.47,47.00,-0.80,-2.25,-1.78,0
-135.68,141.66,83.25,-0.46,-1.74,-1.71,0
-138.67,102.48,114.26,-0.09,-1.11,-1.52,0
-121.89,38.09,154.79,0.31,-0.35,-1.26,0
-100.10,-39.12,211.30,0.89,0.69,-1.00,0
-81.36,-93.93,272.52,1.92,2.04,-0.61,0
-64.88,-109.19,300.35,3.20,2.67,-0.22,0
-65.67,-82.09,216.49,4.00,2.82,0.12,0
-113.28,-30.33,29.91,4.00,3.23,0.41,0
-168.82,16.17,-134.22,3.84,3.31,1.12,0
-158.14,29.05,-205.44,3.46,2.71,1.74,0
-70.13,-6.04,-220.46,2.97,1.55,1.65,0
23.07,-48.40,-229.49,2.13,0.63,1.07,0
58.41,-55.11,-240.66,1.17,-0.03,0.53,0
48.28,-20.63,-248.47,0.34,-0.60,0.37,0
31.01,10.50,-255.19,-0.51,-0.92,0.33,0
38.51,14.59,-243.41,-1.45,-1.35,0.08,0
53.28,7.75,-206.54,-2.34,-2.05,-0.34,0
47.85,8.12,-153.38,-2.95,-2.72,-0.64,0
21.00,19.78,-86.67,-3.23,-3.13,-0.64,0
-3.42,36.68,-4.94,-3.21,-3.10,-0.52,0
-11.54,52.43,98.45,-2.74,-2.64,-0.40,0
-4.52,53.71,212.52,-1.80,-1.89,-0.28,0
8.30,25.27,308.96,-0.60,-0.52,-0.39,0
7.26,-13.24,378.48,1.14,0.96,-0.52,0
-16.30,-28.99,380.49,3.39,2.40,-0.24,0
-44.49,-19.90,280.40,4.00,3.41,0.23,0
-65.61,2.81,100.16,4.00,3.85,0.62,0
-66.47,28.26,-55.54,4.00,3.61,0.99,0
-23.62,31.68,-135.01,4.00,2.39,1.08,0
36.25,8.85,-185.67,3.41,1.18,0.74,0
67.99,-5.13,-220.09,2.19,0.20,0.05,0
69.95,13.00,-236.08,1.05,-0.35,-0.52,0
53.34,39.98,-233.76,0.09,-0.91,-0.90,0
42.85,40.59,-224.30,-0.95,-1.53,-1.26,0
35.16,14.83,-204.53,-2.03,-1.98,-1.52,0
14.16,-13.73,-151.55,-2.82,-2.36,-1.42,0
-2.32,-39.37,-70.43,-3.21,-2.76,-1.05,0
-4.03,-67.50,20.63,-3.38,-2.93,-0.83,0
-19.53,-71.41,123.72,-3.07,-2.60,-0.69,0
-69.03,-19.65,232.24,-1.98,-1.53,-0.16,0
-117.43,49.68,323.24,0.02,0.34,0.48,0
-112.73,62.74,357.42,2.51,2.00,1.01,0
-67.08,12.15,299.38,4.00,3.32,1.21,0
-18.13,-27.83,171.51,4.00,3.78,1.30,0
13.61,-31.49,23.19,4.00,3.63,1.42,0
43.15,-29.79,-87.77,4.00,2.63,1.42,0
82.03,-34.36,-168.21,3.73,1.15,1.16,0
112.98,-26.73,-233.58,2.07,0.02,0.49,0
126.59,0.98,-258.48,0.53,-0.80,-0.27,0
122.50,27.22,-238.16,-0.72,-1.58,-1.01,0
112.85,33.81,-201.78,-1.83,-2.11,-1.66,0
94.24,15.63,-148.01,-2.76,-2.64,-2.00,0
73.85,-23.74,-72.63,-3.64,-3.38,-2.17,0
44.49,-60.30,11.23,-4.00,-3.84,-2.49,0
-32.47,-46.75,117.74,-4.00,-3.06,-2.01,0
-121.09,3.17,247.68,-2.93,-1.73,-1.04,0
-167.24,42.42,353.33,-0.98,0.55,-0.16,0
-169.07,41.32,419.49,1.79,2.90,0.54,0
-130.62,10.68,392.76,4.00,4.00,1.21,0
-79.22,-8.30,249.15,4.00,4.00,1.84,0
-33.57,-10.01,59.75,4.00,4.00,2.34,0
31.56,-18.13,-92.22,4.00,3.14,2.42,0
92.16,-28.14,-200.26,4.00,1.09,1.87,0
135.07,-10.56,-276.79,2.51,-0.14,0.80,0
147.52,23.07,-307.92,0.48,-1.30,-0.35,0
141.17,51.94,-294.68,-1.35,-2.23,-1.45,0
118.77,48.77,-248.66,-3.06,-2.68,-2.56,0
81.85,23.44,-152.40,-4.00,-3.15,-3.19,0
35.52,-13.12,-31.19,-4.00,-3.76,-3.16,0
-14.22,-58.90,85.02,-4.00,-3.66,-2.97,0
-95.21,-60.36,204.41,-4.00,-2.39,-1.97,0
-183.41,-7.57,322.75,-2.27,-0.18,-0.56,0
-215.03,32.71,402.34,0.73,2.93,0.79,0
-172.12,13.31,397.58,3.80,4.00,1.86,0
-97.17,-16.72,270.57,4.00,4.00,2.72,0
-24.29,-24.29,88.13,4.00,4.00,3.19,0
61.83,-34.12,-80.02,4.00,3.29,2.80,0
113.83,-29.17,-199.34,4.00,1.08,2.00,0
140.01,11.23,-277.59,3.23,-0.45,0.98,0
159.55,32.96,-318.05,0.98,-1.57,-0.47,0
143.98,45.72,-293.27,-0.91,-2.38,-1.55,0
101.87,49.32,-230.04,-2.28,-2.52,-2.22,0
64.21,28.69,-138.98,-3.02,-2.47,-2.50,0
30.46,-11.96,-42.30,-3.74,-2.75,-2.47,0
-10.93,-31.92,45.17,-4.00,-2.87,-2.26,0
-82.89,9.52,145.69,-3.43,-1.51,-1.51,0
-142.21,64.03,256.96,-1.21,0.42,-0.54,0
-144.65,47.79,320.74,1.79,2.58,0.14,0
-114.99,-12.88,285.03,3.97,3.59,0.85,0
-78.74,-30.15,164.00,4.00,3.60,1.60,0
-34.85,-18.13,24.60,4.00,3.06,2.06,0
24.96,-27.10,-76.72,4.00,1.95,1.93,0
69.09,-33.57,-143.13,4.00,0.71,1.57,0
89.42,-8.06,-209.35,3.09,-0.15,0.93,0
89.72,32.84,-250.61,1.53,-0.71,0.33,0
88.32,47.30,-242.68,0.09,-1.17,-0.40,0
87.89,32.10,-215.39,-1.27,-1.49,-1.17,0
73.55,21.00,-169.43,-2.12,-1.55,-1.62,0
50.29,13.49,-107.18,-2.46,-1.67,-1.69,0
27.53,3.66,-43.58,-2.76,-1.94,-1.69,0
-13.31,13.92,14.34,-2.62,-1.80,-1.47,0
-66.28,47.36,69.34,-1.84,-1.04,-0.88,0
-94.48,61.65,121.83,-0.79,-0.09,-0.51,0
-88.81,50.11,161.38,0.46,0.55,-0.42,0
-80.99,28.02,159.73,1.63,1.18,-0.22,0
-72.20,1.04,125.73,2.40,1.22,0.12,0
-56.88,-23.01,80.38,2.80,0.75,0.49,0
-46.39,-26.49,39.67,2.93,0.27,0.80,0
-40.71,-8.91,5.62,2.93,0.03,1.06,0
-24.35,9.46,-20.14,2.86,-0.01,1.10,0
-2.87,13.85,-36.80,2.64,-0.04,0.96,0
16.42,14.53,-57.07,2.14,-0.03,0.68,0
25.09,26.79,-80.51,1.61,-0.00,0.48,0
25.21,36.68,-94.73,1.15,0.09,0.46,0
27.59,29.79,-97.11,0.73,0.12,0.51,0
38.21,13.06,-94.67,0.34,0.11,0.52,0
50.60,0.18,-87.59,0.01,0.07,0.51,0
61.10,3.23,-74.89,-0.15,-0.00,0.57,0
72.45,18.43,-60.67,-0.15,-0.11,0.69,0
92.35,29.48,-50.11,-0.15,-0.27,0.64,0
118.16,32.90,-40.28,-0.20,-0.52,0.41,0
136.05,43.15,-27.95,-0.20,-0.72,0.17,0
143.62,63.72,-12.15,-0.10,-0.84,-0.11,0
147.83,87.95,0.12,0.08,-0.91,-0.43,0
153.38,105.53,6.35,0.19,-0.98,-0.69,0
159.12,109.31,8.97,0.17,-1.01,-1.01,0
158.33,113.22,13.43,0.12,-1.15,-1.46,0
133.00,122.01,22.28,0.21,-1.09,-1.75,0
92.77,116.52,38.82,0.28,-0.92,-1.77,0
70.92,89.42,61.28,0.32,-0.80,-1.81,0
65.00,55.05,85.45,0.38,-0.72,-1.96,0
55.60,23.13,108.34,0.47,-0.59,-2.07,0
39.43,-6.84,128.91,0.56,-0.56,-2.18,0
23.19,-37.72,143.74,0.78,-0.44,-2.27,0
4.46,-80.32,152.28,0.98,-0.29,-2.32,0
-14.77,-132.75,155.09,1.08,-0.19,-2.40,0
-35.58,-172.24,152.53,1.14,-0.04,-2.43,0
-61.10,-184.63,146.73,1.29,0.10,-2.25,0
-90.03,-183.35,132.75,1.42,0.28,-1.95,0
-113.28,-184.14,110.23,1.49,0.45,-1.67,0
-129.27,-194.58,84.05,1.50,0.59,-1.37,0
-144.96,-211.55,63.90,1.48,0.77,-0.95,0
-155.09,-235.96,53.41,1.41,0.89,-0.46,0
-157.65,-269.59,46.02,1.30,1.04,0.05,0
-152.77,-306.70,40.83,1.16,1.06,0.65,0
-148.93,-335.08,31.98,0.92,0.96,1.26,0
-156.01,-322.88,10.62,0.60,0.86,1.84,0
-177.80,-257.08,-19.47,0.31,0.78,2.63,0
-198.24,-164.12,-47.73,0.08,0.77,3.69,0
-184.27,-84.17,-69.34,-0.10,0.69,4.00,0
-126.28,-32.71,-81.05,-0.39,0.62,4.00,0
-44.62,7.75,-73.91,-0.66,0.54,4.00,0
39.73,62.01,-50.17,-0.75,0.50,4.00,0
116.15,116.70,-18.19,-0.65,0.45,3.30,0
177.61,152.53,15.32,-0.46,0.46,2.35,0
216.06,171.26,47.42,-0.19,0.53,1.51,0
234.01,179.20,69.82,0.20,0.53,0.75,0
238.59,177.80,73.24,0.51,0.52,0.06,0
227.78,174.38,64.94,0.75,0.57,-0.42,0
212.59,170.84,58.17,0.99,0.60,-0.71,0
207.34,159.42,52.55,1.21,0.49,-1.37,0
203.98,163.09,36.93,1.46,0.22,-2.16,0
184.33,177.06,11.47,1.78,0.14,-2.79,0
160.03,163.51,-9.09,1.96,0.00,-3.48,0
133.97,118.71,-25.57,2.09,-0.09,-4.00,0
105.77,50.90,-32.10,2.09,-0.32,-4.00,0
64.94,-25.82,-36.25,1.94,-0.48,-4.00,0
16.85,-91.74,-37.23,1.78,-0.56,-4.00,0
-33.69,-141.97,-39.31,1.51,-0.58,-4.00,0
-90.88,-169.68,-47.67,1.17,-0.48,-3.32,0
-150.76,-174.44,-55.30,0.85,-0.14,-2.34,0
-194.89,-172.73,-55.79,0.65,0.21,-1.16,0
-211.61,-188.72,-52.80,0.38,0.47,0.10,0
-208.92,-212.52,-52.31,-0.03,0.68,1.52,0
-201.29,-219.42,-53.41,-0.50,0.89,3.09,0
-186.71,-199.52,-55.79,-0.83,1.01,4.00,0
-154.30,-146.30,-57.68,-1.06,1.06,4.00,0
-98.39,-67.14,-56.46,-1.16,0.98,4.00,0
-26.37,20.63,-48.52,-1.02,0.71,4.00,0
54.44,93.08,-32.96,-0.76,0.41,4.00,0
137.27,132.87,-9.52,-0.40,0.19,3.67,0
209.72,146.06,20.81,-0.04,-0.09,2.07,0
262.27,160.03,48.89,0.33,-0.31,0.19,0
274.54,190.19,70.01,0.91,-0.44,-1.71,0
249.69,218.75,70.25,1.55,-0.43,-3.26,0
206.24,205.51,43.21,1.87,-0.40,-4.00,0
150.21,151.61,19.47,1.98,-0.37,-4.00,0
81.36,76.84,13.98,2.12,-0.45,-4.00,0
4.70,-13.98,6.29,2.11,-0.33,-4.00,0
-54.26,-104.06,-5.68,1.82,-0.26,-4.00,0
-96.25,-168.58,-13.24,1.49,-0.27,-3.56,0
-154.85,-208.62,-23.07,1.04,-0.11,-2.14,0
-213.81,-205.08,-39.18,0.57,0.29,-0.29,0
-245.48,-168.40,-49.32,0.20,0.80,1.58,0
-237.73,-122.62,-52.98,-0.12,1.11,3.22,0
-198.91,-79.90,-57.43,-0.43,1.30,4.00,0
-131.77,-46.57,-50.35,-0.63,1.24,4.00,0
-43.52,-22.95,-28.14,-0.66,0.84,4.00,0
39.43,2.44,-5.07,-0.56,0.45,4.00,0
103.70,40.65,13.18,-0.35,0.13,4.00,0
160.16,91.55,29.48,-0.01,-0.11,2.99,0
213.75,133.97,48.40,0.37,-0.28,1.40,0
246.22,159.06,67.93,0.80,-0.38,-0.43,0
240.84,172.73,77.76,1.26,-0.44,-2.14,0
208.25,176.94,67.93,1.67,-0.41,-3.62,0
161.68,160.64,47.49,1.95,-0.36,-4.00,0
104.49,117.37,32.10,2.24,-0.36,-4.00,0
30.88,35.95,23.56,2.35,-0.36,-4.00,0
-48.46,-72.57,8.79,2.24,-0.12,-4.00,0
-108.46,-171.08,-4.76,1.95,0.09,-4.00,0
-149.05,-240.42,-12.63,1.68,0.28,-3.63,0
-201.05,-282.35,-25.33,1.24,0.66,-2.23,0
-250.67,-286.93,-46.02,0.73,1.00,-0.37,0
-283.45,-259.22,-72.75,0.12,1.13,1.51,0
-296.81,-196.53,-108.95,-0.59,1.20,3.27,0
-292.91,-119.69,-137.39,-1.22,1.38,4.00,0
-242.37,-64.09,-122.86,-1.59,1.35,4.00,0
-137.21,-41.20,-72.02,-1.68,0.97,4.00,0
-14.10,-19.59,-19.29,-1.66,0.55,4.00,0
76.90,24.29,22.89,-1.41,0.29,4.00,0
147.22,95.21,63.23,-0.99,0.15,4.00,0
215.58,162.72,99.06,-0.44,0.11,2.81,0
269.17,209.66,126.71,0.13,0.13,1.11,0
288.76,236.51,137.02,0.63,0.22,-0.41,0
277.04,243.41,128.78,1.09,0.27,-1.80,0
251.46,240.23,110.90,1.56,0.25,-3.13,0
217.04,229.31,84.84,1.93,0.24,-4.00,0
166.75,200.93,57.01,2.23,0.18,-4.00,0
104.86,131.23,38.57,2.40,0.09,-4.00,0
45.47,30.52,25.63,2.43,0.05,-4.00,0
-6.29,-66.77,12.02,2.29,-0.01,-4.00,0
-50.66,-134.22,-4.46,2.07,-0.12,-4.00,0
-117.68,-167.36,-25.82,1.81,-0.05,-3.58,0
-197.14,-167.85,-49.19,1.54,0.22,-2.44,0
-257.08,-151.98,-68.97,1.28,0.68,-1.22,0
-284.97,-138.98,-79.28,1.07,1.03,-0.07,0
-288.88,-134.77,-90.15,0.84,1.22,0.94,0
-290.22,-132.14,-109.86,0.53,1.39,2.14,0
-279.97,-130.07,-131.29,0.17,1.54,3.50,0
-226.07,-142.21,-136.78,-0.28,1.34,4.00,0
-142.58,-151.37,-124.51,-0.71,0.84,4.00,0
-66.77,-124.02,-103.70,-0.94,0.25,4.00,0
-0.49,-47.00,-75.56,-1.01,-0.17,4.00,0
48.40,44.31,-42.91,-0.77,-0.21,3.62,0
89.84,118.16,-2.56,-0.42,-0.24,2.93,0
136.72,172.42,33.20,-0.05,-0.11,1.96,0
176.33,210.82,65.12,0.36,0.05,0.82,0
190.73,233.83,83.19,0.88,0.25,-0.14,0
181.40,233.70,79.53,1.42,0.52,-0.84,0
165.10,210.45,58.84,1.90,0.63,-1.41,0
144.35,175.72,20.57,2.25,0.64,-1.82,0
113.65,140.01,-30.15,2.38,0.65,-2.09,0
71.35,113.22,-81.36,2.38,0.46,-2.13,0
22.58,99.43,-130.80,2.22,0.36,-1.96,0
-12.08,94.12,-169.62,1.98,0.29,-1.63,0
-22.46,79.59,-189.15,1.70,0.19,-1.26,0
-13.37,43.21,-192.32,1.34,-0.03,-1.03,0
6.47,7.81,-187.32,0.96,-0.30,-0.93,0
22.16,-13.12,-176.70,0.65,-0.54,-0.83,0
25.33,-28.81,-163.45,0.34,-0.79,-0.67,0
27.28,-46.33,-153.56,-0.05,-1.08,-0.55,0
28.26,-61.40,-141.36,-0.55,-1.32,-0.56,0
21.61,-61.83,-116.82,-1.05,-1.69,-0.66,0
-2.93,-45.90,-86.49,-1.43,-2.06,-0.70,0
-39.55,-23.13,-54.02,-1.71,-2.26,-0.65,0
-70.68,-1.83,-18.19,-1.91,-2.30,-0.57,0
-88.13,15.14,22.95,-2.02,-2.17,-0.49,0
-92.59,26.18,75.68,-2.00,-1.96,-0.41,0
-87.95,27.28,140.20,-1.79,-1.74,-0.37,0
-85.02,16.54,202.88,-1.52,-1.44,-0.40,0
-91.25,4.88,250.79,-1.14,-1.06,-0.32,0
-101.87,-4.82,283.08,-0.62,-0.45,-0.15,0
-109.31,-22.09,303.89,-0.06,0.26,-0.02,0
-118.84,-40.47,316.28,0.68,1.22,0.19,0
-127.32,-45.35,321.72,1.71,2.14,0.58,0
-119.75,-26.18,299.19,2.83,2.86,0.98,0
-95.21,6.71,240.11,3.76,3.34,1.28,0
-58.47,19.29,161.50,4.00,3.51,1.43,0
-25.21,6.10,81.05,4.00,3.17,1.47,0
3.11,4.21,5.25,4.00,2.62,1.41,0
28.99,24.05,-59.27,4.00,2.12,1.28,0
57.25,35.83,-108.34,3.88,1.69,0.98,0
83.50,29.48,-148.44,3.28,1.36,0.55,0
102.29,22.28,-179.38,2.59,1.15,0.14,0
109.37,17.70,-202.64,1.92,0.96,-0.14,0
110.41,11.41,-223.39,1.20,0.74,-0.33,0
112.24,-0.43,-240.17,0.45,0.41,-0.51,0
112.55,-13.31,-246.64,-0.24,-0.10,-0.70,0
105.29,-22.09,-241.15,-0.85,-0.56,-0.84,0
91.86,-24.60,-224.06,-1.39,-1.07,-0.93,0
77.03,-22.22,-199.65,-1.81,-1.67,-1.03,0
54.99,-15.99,-168.95,-2.18,-2.21,-1.13,0
25.70,-0.55,-127.50,-2.44,-2.66,-1.17,0
-6.65,24.35,-73.73,-2.57,-2.95,-1.19,0
-36.32,52.67,-12.45,-2.58,-3.06,-1.22,0
-60.12,74.04,57.50,-2.45,-2.91,-1.10,0
-69.40,71.47,135.07,-2.17,-2.58,-0.95,0
-61.28,41.56,209.23,-1.80,-2.18,-0.97,0
-54.08,1.04,268.92,-1.39,-1.74,-0.98,0
-65.00,-32.71,310.97,-0.98,-1.07,-0.86,0
-93.20,-40.65,341.74,-0.46,0.18,-0.62,0
-124.94,-14.65,370.67,0.51,1.24,-0.29,0
-152.59,31.31,361.82,1.59,2.14,0.20,0
-182.50,81.05,306.58,2.60,3.55,0.77,0
-174.93,118.23,240.84,3.74,4.00,1.40,0
-108.09,103.33,162.78,4.00,4.00,1.58,0
-28.50,50.54,83.68,4.00,3.78,1.33,0
28.63,16.78,17.09,4.00,3.05,1.01,0
55.79,18.74,-46.45,4.00,2.12,0.80,0
65.73,24.60,-115.60,3.92,1.62,0.46,0
70.43,25.15,-165.77,3.32,1.22,0.10,0
72.57,30.21,-197.45,2.76,0.92,-0.16,0
77.82,25.39,-221.98,2.04,0.60,-0.51,0
80.75,8.06,-247.62,1.13,0.19,-0.85,0
74.65,-10.68,-265.93,0.25,-0.29,-0.99,0
68.48,-32.29,-265.56,-0.62,-0.74,-1.08,0
68.24,-54.87,-242.19,-1.42,-1.23,-1.18,0
70.86,-72.45,-203.55,-2.13,-1.85,-1.33,0
61.77,-81.36,-155.88,-2.76,-2.50,-1.55,0
26.73,-70.56,-96.07,-3.07,-2.91,-1.58,0
-20.81,-38.02,-22.52,-3.04,-3.02,-1.36,0
-57.07,-4.58,55.11,-2.81,-2.81,-1.08,0
-77.76,18.43,132.69,-2.35,-2.38,-0.77,0
-88.62,22.34,203.74,-1.76,-1.86,-0.50,0
-90.15,10.99,251.10,-1.13,-1.31,-0.27,0
-92.41,-7.45,276.25,-0.51,-0.60,-0.00,0
-97.47,-25.76,289.98,0.17,0.49,0.26,0
-102.42,-33.02,304.08,1.12,1.75,0.56,0
-97.53,-19.35,302.06,2.34,2.69,0.92,0
-90.09,7.26,254.64,3.51,3.68,1.07,0
-86.73,44.19,171.63,4.00,4.00,1.32,0
-66.96,67.93,63.17,4.00,3.97,1.52,0
-26.86,55.05,-48.16,4.00,3.70,1.42,0
19.04,33.57,-113.40,4.00,2.70,1.31,0
73.00,14.95,-157.23,3.96,1.62,0.85,0
98.02,1.65,-202.15,3.09,0.93,0.20,0
96.62,13.92,-230.90,2.34,0.61,-0.18,0
92.47,21.67,-243.47,1.59,0.33,-0.46,0
102.42,5.80,-251.28,0.68,-0.09,-0.85,0
106.93,-14.10,-252.08,-0.25,-0.53,-1.21,0
97.53,-23.99,-236.51,-1.04,-0.90,-1.37,0
81.54,-31.80,-207.82,-1.68,-1.22,-1.38,0
69.95,-42.11,-168.70,-2.22,-1.65,-1.37,0
62.13,-50.66,-120.00,-2.67,-2.15,-1.45,0
45.84,-56.15,-61.89,-2.97,-2.64,-1.56,0
12.39,-52.12,4.94,-3.04,-2.99,-1.54,0
-30.33,-31.86,75.74,-2.91,-2.92,-1.39,0
-70.19,2.38,146.12,-2.51,-2.61,-1.11,0
-99.85,30.88,205.81,-1.90,-2.16,-0.84,0
-121.58,33.75,242.00,-1.29,-1.51,-0.49,0
-131.23,11.47,264.34,-0.78,-0.65,-0.15,0
-131.29,-17.76,292.97,-0.16,0.57,0.10,0
-128.91,-38.57,331.60,0.89,1.81,0.37,0
-127.26,-45.17,341.19,2.23,2.86,0.85,0
-110.29,-34.06,296.33,3.32,3.68,1.17,0
-76.35,-6.16,216.19,4.00,3.90,1.31,0
-36.56,4.09,127.38,4.00,3.71,1.45,0
-4.58,-12.27,54.87,4.00,2.84,1.07,0
1.89,14.40,-16.97,4.00,2.71,1.14,0
24.84,30.46,-61.22,4.00,1.85,1.09,0
53.22,14.95,-108.52,3.87,1.42,0.65,0
65.19,12.88,-147.22,3.32,1.38,0.24,0
64.21,30.76,-165.89,3.03,1.34,0.11,0
65.92,35.83,-197.88,2.52,1.31,-0.10,0
68.54,24.72,-234.80,1.82,1.24,-0.34,0
66.16,15.20,-260.56,1.15,1.10,-0.39,0
68.66,-0.67,-268.25,0.56,1.04,-0.43,0
73.73,-20.26,-255.62,0.19,0.91,-0.40,0
82.09,-37.41,-237.92,-0.05,0.70,-0.35,0
89.66,-48.95,-228.64,-0.30,0.55,-0.34,0
91.74,-46.88,-219.12,-0.43,0.40,-0.26,0
91.61,-34.67,-208.56,-0.50,0.21,-0.17,0
91.74,-20.69,-201.35,-0.57,-0.00,-0.14,0
89.36,-4.52,-194.64,-0.61,-0.22,-0.09,0
85.02,13.24,-186.10,-0.60,-0.41,-0.05,0
84.47,27.47,-176.03,-0.61,-0.67,-0.07,0
87.04,34.30,-165.77,-0.64,-1.03,-0.20,0
84.72,38.02,-152.28,-0.63,-1.38,-0.26,0
83.31,37.35,-133.54,-0.63,-1.74,-0.36,0
83.92,32.41,-109.44,-0.66,-2.04,-0.49,0
83.74,26.12,-83.13,-0.71,-2.33,-0.74,0
77.27,21.97,-56.58,-0.76,-2.48,-1.05,0
59.08,20.08,-28.56,-0.76,-2.49,-1.26,0
34.00,14.59,-1.59,-0.75,-2.34,-1.32,0
12.94,3.97,26.92,-0.76,-2.17,-1.44,0
-6.35,-3.60,57.19,-0.68,-1.96,-1.49,0
-28.44,-10.25,87.28,-0.49,-1.66,-1.44,0
-47.97,-22.03,111.82,-0.25,-1.39,-1.43,0
-63.11,-35.10,127.69,-0.02,-1.16,-1.40,0
-76.84,-48.65,138.49,0.22,-0.94,-1.27,0
-86.79,-68.91,146.61,0.43,-0.73,-1.05,0
-88.20,-97.72,152.10,0.60,-0.51,-0.86,0
-86.43,-128.72,154.85,0.70,-0.33,-0.76,0
-97.05,-147.95,152.95,0.76,-0.14,-0.57,0
-126.40,-140.14,143.62,0.80,0.06,-0.31,0
-171.69,-94.36,124.39,0.94,0.35,0.14,0
-213.62,-30.27,96.25,1.13,0.69,0.77,0
-228.70,11.84,66.22,1.26,1.03,1.52,0
-200.62,7.51,51.45,1.27,1.24,2.15,0
-132.63,-28.99,59.94,1.23,1.14,2.38,0
-57.01,-62.07,74.46,1.19,0.87,2.33,0
-1.95,-69.34,77.94,1.11,0.70,2.15,0
25.39,-50.17,72.57,1.06,0.60,1.99,0
35.58,-5.43,58.96,1.03,0.58,1.89,0
52.67,47.12,43.21,0.99,0.53,1.68,0
73.00,82.34,35.58,0.95,0.47,1.39,0
91.80,100.40,35.52,0.94,0.36,1.13,0
110.35,110.05,34.79,0.93,0.28,0.80,0
129.03,119.81,35.83,0.95,0.29,0.38,0
144.71,130.86,42.91,1.05,0.22,-0.04,0
155.15,134.89,51.94,1.15,0.17,-0.42,0
158.20,132.75,62.19,1.26,0.20,-0.69,0
159.24,129.33,70.31,1.47,0.19,-0.95,0
155.76,127.01,61.10,1.75,0.15,-1.19,0
141.54,118.77,28.26,1.94,0.11,-1.45,0
112.18,98.69,-14.47,1.90,0.17,-1.67,0
77.39,71.84,-44.86,1.76,0.15,-1.81,0
46.08,48.58,-60.18,1.67,0.03,-1.81,0
22.16,25.88,-69.46,1.57,-0.06,-1.81,0
5.86,3.23,-75.81,1.44,-0.21,-1.84,0
-14.16,-15.50,-82.95,1.27,-0.34,-1.77,0
-40.34,-28.99,-90.33,1.12,-0.40,-1.55,0
-59.69,-41.26,-95.40,0.97,-0.45,-1.31,0
-69.70,-56.27,-96.86,0.83,-0.48,-1.07,0
-73.85,-74.46,-94.42,0.70,-0.56,-0.84,0
-77.64,-95.03,-90.21,0.60,-0.65,-0.64,0
-84.90,-113.46,-86.61,0.51,-0.71,-0.45,0
-95.40,-127.62,-86.00,0.44,-0.75,-0.23,0
-107.24,-137.82,-90.58,0.38,-0.77,-0.01,0
-120.91,-145.63,-101.44,0.32,-0.75,0.25,0
-132.39,-155.40,-118.41,0.26,-0.73,0.48,0
-143.92,-165.34,-142.33,0.25,-0.66,0.63,0
-157.47,-172.55,-176.39,0.21,-0.57,0.75,0
-173.58,-173.89,-217.90,0.10,-0.43,0.86,0
-189.09,-162.48,-259.95,0.05,-0.29,1.05,0
-195.19,-144.17,-294.80,-0.10,-0.20,1.32,0
-183.11,-117.86,-311.77,-0.37,-0.14,1.66,0
-139.83,-72.33,-293.95,-0.68,-0.12,1.83,0
-71.72,-5.43,-239.99,-0.80,-0.11,1.87,0
5.55,57.86,-161.07,-0.68,-0.13,1.81,0
78.31,91.55,-73.79,-0.41,-0.14,1.65,0
135.99,88.56,4.58,-0.12,-0.14,1.45,0
183.84,61.52,68.18,0.07,-0.21,1.09,0
219.12,37.48,113.89,0.17,-0.25,0.65,0
241.94,41.50,143.86,0.25,-0.41,0.22,0
252.26,73.55,159.73,0.29,-0.55,-0.18,0
251.71,124.88,169.13,0.18,-0.67,-0.85,0
236.69,202.88,190.67,0.12,-0.94,-1.47,0
189.21,280.76,228.64,0.21,-0.91,-1.76,0
128.30,315.06,290.34,0.36,-0.74,-1.70,0
84.84,284.30,372.50,0.42,-0.40,-1.57,0
66.83,201.11,462.59,0.47,0.04,-1.33,0
79.71,89.60,539.79,0.71,0.57,-1.10,0
126.83,-20.02,587.83,1.34,0.99,-1.24,0
177.06,-107.73,579.65,2.14,0.72,-1.52,0
181.40,-156.01,486.69,2.74,0.24,-1.60,0
126.89,-180.54,319.82,2.86,0.26,-1.41,0
41.08,-208.19,144.29,2.38,0.64,-1.26,0
-45.29,-217.53,30.76,1.79,1.08,-1.09,0
-119.81,-191.35,-7.57,1.69,1.25,-0.65,0
-176.03,-149.05,-12.70,1.97,1.26,-0.13,0
-200.20,-108.28,-30.70,2.30,1.15,0.45,0
-196.41,-88.99,-74.40,2.34,1.17,0.79,0
-183.78,-87.40,-121.89,2.20,1.27,0.97,0
-168.21,-89.23,-155.82,2.13,1.19,1.19,0
-149.90,-102.84,-187.13,2.03,1.10,1.39,0
-127.26,-130.86,-223.51,1.82,1.04,1.47,0
-104.43,-159.55,-263.18,1.45,1.06,1.49,0
-83.92,-173.58,-294.31,1.07,1.08,1.49,0
-58.35,-167.54,-310.73,0.73,1.05,1.50,0
-25.76,-144.96,-312.87,0.40,0.95,1.55,0
14.89,-108.83,-301.21,0.11,0.73,1.56,0
61.10,-63.72,-282.41,-0.10,0.54,1.49,0
105.83,-21.91,-258.36,-0.26,0.38,1.41,0
148.86,5.92,-229.80,-0.40,0.16,1.41,0
198.18,11.41,-201.60,-0.55,-0.04,1.40,0
261.60,-9.52,-170.53,-0.80,-0.21,1.11,0
335.51,-37.66,-130.92,-1.24,-0.50,0.29,0
381.65,-29.97,-73.30,-1.80,-0.90,-0.91,0
363.59,46.63,17.21,-2.02,-1.84,-2.05,0
287.96,171.94,113.46,-1.77,-2.46,-2.55,0
176.27,260.62,190.00,-1.52,-2.15,-2.62,0
99.24,278.02,258.54,-1.25,-1.85,-2.48,0
87.40,233.89,325.50,-0.94,-1.67,-2.34,0
103.33,146.91,383.61,-0.65,-1.39,-2.32,0
125.24,57.13,433.72,-0.31,-1.07,-2.45,0
134.34,-8.06,465.27,0.36,-0.72,-2.59,0
106.93,-59.14,456.54,1.34,-0.27,-2.50,0
40.53,-117.80,392.70,2.21,0.18,-2.12,0
-61.77,-196.90,284.30,2.66,1.22,-1.53,0
-187.44,-260.19,176.82,2.79,2.10,-0.84,0
-289.43,-257.63,67.20,3.05,2.72,0.21,0
-339.17,-199.10,-50.42,3.29,3.21,1.26,0
-330.99,-140.08,-154.91,3.26,3.25,1.94,0
-276.49,-106.87,-233.15,3.01,2.87,2.33,0
-199.52,-104.86,-274.41,2.59,2.23,2.45,0
-125.18,-119.20,-292.36,2.10,1.53,2.36,0
-55.60,-122.74,-301.64,1.44,0.99,2.09,0
1.65,-109.37,-305.79,0.76,0.62,1.74,0
49.01,-82.52,-306.15,0.21,0.19,1.46,0
93.26,-50.90,-306.46,-0.30,-0.18,1.19,0
139.04,-18.31,-309.08,-0.77,-0.41,0.88,0
183.04,14.59,-305.30,-1.21,-0.55,0.58,0
222.41,40.59,-292.72,-1.66,-1.00,0.16,0
268.37,69.70,-287.66,-2.00,-1.46,-0.31,0
319.70,110.17,-281.80,-2.45,-1.44,-0.70,0
350.52,144.59,-235.66,-3.15,-1.41,-1.69,0
321.29,189.94,-103.88,-2.99,-2.06,-2.35,0
195.19,199.28,81.67,-2.44,-2.31,-2.61,0
24.78,158.81,252.87,-1.88,-1.80,-2.38,0
-108.64,111.63,383.06,-1.17,-0.87,-1.86,0
-167.42,63.42,483.89,-0.33,-0.12,-1.42,0
-179.81,-4.88,557.92,0.63,0.71,-1.16,0
-178.22,-93.93,599.91,1.79,1.93,-1.02,0
-166.93,-179.75,601.50,3.00,2.72,-0.96,0
-147.58,-220.28,513.85,4.00,2.47,-0.24,0
-129.58,-215.39,313.84,4.00,1.97,0.72,0
-120.12,-177.12,67.75,3.86,1.96,1.05,0
-111.94,-78.74,-102.97,3.07,1.97,1.05,0
-97.53,29.24,-157.10,2.89,1.44,1.23,0
-74.65,71.23,-158.14,2.82,0.87,1.45,0
-41.02,38.94,-159.73,2.45,0.64,1.31,0
0.85,-9.58,-166.20,1.92,0.42,1.00,0
31.98,-37.48,-175.42,1.46,0.28,0.74,0
46.20,-45.53,-183.59,1.02,0.21,0.54,0
51.45,-43.15,-186.04,0.65,0.12,0.36,0
51.70,-33.69,-182.50,0.37,0.00,0.24,0
50.48,-22.16,-172.42,0.14,-0.08,0.11,0
50.05,-10.01,-153.81,-0.05,-0.22,0.02,0
50.35,2.99,-128.91,-0.18,-0.52,-0.04,0
46.88,17.15,-104.92,-0.28,-0.74,-0.05,0
43.52,31.86,-79.65,-0.35,-0.91,-0.05,0
42.97,46.57,-53.65,-0.38,-1.04,-0.05,0
44.92,61.71,-27.77,-0.35,-1.15,-0.07,0
46.57,72.51,-1.34,-0.27,-1.22,-0.09,0
45.53,73.43,24.11,-0.20,-1.18,-0.18,0
41.44,67.50,47.85,-0.10,-1.12,-0.23,0
36.56,60.61,69.21,0.03,-1.07,-0.29,0
29.11,54.08,84.59,0.19,-1.01,-0.34,0
14.34,46.94,94.24,0.32,-0.87,-0.39,0
-2.44,40.71,99.55,0.47,-0.65,-0.40,0
-13.00,39.86,101.75,0.73,-0.49,-0.35,0
-18.68,37.11,96.25,0.99,-0.40,-0.25,0
-21.97,29.05,80.14,1.14,-0.25,-0.18,0
-21.30,25.33,60.85,1.23,-0.12,-0.13,0
-19.65,30.40,45.29,1.30,-0.01,-0.06,0
-16.78,38.33,36.68,1.34,0.06,0.01,0
-9.46,44.43,33.75,1.38,0.05,0.06,0
1.34,45.47,32.10,1.40,0.01,0.08,0
11.90,42.72,29.17,1.36,-0.00,0.03,0
19.78,42.48,27.65,1.29,-0.07,-0.09,0
20.02,49.26,29.17,1.25,-0.13,-0.17,0
15.81,55.79,32.23,1.22,-0.12,-0.23,0
10.99,59.20,36.50,1.22,-0.09,-0.27,0
6.16,58.11,40.83,1.24,-0.02,-0.29,0
4.21,53.47,43.03,1.33,0.06,-0.32,0
3.60,46.39,37.96,1.47,0.07,-0.34,0
-2.20,35.22,18.86,1.58,0.08,-0.36,0
-15.32,23.01,-8.79,1.63,0.09,-0.33,0
-29.85,11.96,-40.04,1.63,0.06,-0.25,0
-38.88,-0.92,-73.00,1.57,0.04,-0.14,0
-38.70,-13.37,-101.44,1.42,0.03,-0.02,0
-28.63,-23.62,-120.36,1.25,-0.01,0.05,0
-12.51,-28.02,-126.83,1.09,-0.12,0.09,0
3.17,-28.44,-124.57,0.94,-0.20,0.09,0
17.33,-26.12,-118.59,0.82,-0.27,0.07,0
28.75,-22.16,-111.57,0.72,-0.35,0.03,0
37.11,-18.98,-104.31,0.65,-0.41,0.01,0
43.15,-18.62,-96.13,0.58,-0.46,-0.02,0
48.22,-20.20,-87.16,0.52,-0.53,-0.07,0
51.57,-20.94,-77.82,0.44,-0.59,-0.14,0
52.86,-18.49,-66.89,0.38,-0.67,-0.19,0
52.55,-13.24,-51.88,0.33,-0.75,-0.22,0
50.17,-7.69,-35.28,0.32,-0.81,-0.24,0
47.12,-2.56,-19.65,0.30,-0.83,-0.27,0
44.80,1.95,-5.80,0.30,-0.85,-0.34,0
41.38,5.62,5.68,0.31,-0.89,-0.39,0
32.41,7.51,13.67,0.31,-0.92,-0.43,0
18.92,8.91,18.19,0.32,-0.88,-0.45,0
6.71,10.99,20.75,0.35,-0.86,-0.43,0
-2.08,10.38,20.57,0.38,-0.86,-0.43,0
-9.77,8.24,19.65,0.37,-0.85,-0.43,0
-17.15,7.87,20.63,0.37,-0.83,-0.44,0
-24.05,9.09,26.06,0.37,-0.72,-0.43,0
-27.04,9.58,40.53,0.42,-0.62,-0.37,0
-23.62,5.31,61.83,0.51,-0.57,-0.33,0
-18.25,-4.03,82.70,0.60,-0.53,-0.31,0
-13.85,-17.46,100.65,0.70,-0.45,-0.31,0
-11.60,-33.45,115.23,0.81,-0.39,-0.31,0
-12.33,-48.10,123.35,0.90,-0.34,-0.31,0
-15.93,-58.11,124.27,0.95,-0.31,-0.29,0
-22.22,-60.42,118.77,0.99,-0.30,-0.28,0
-32.29,-54.08,105.96,1.04,-0.31,-0.25,0
-44.86,-41.93,86.24,1.04,-0.32,-0.21,0
-58.11,-27.04,64.33,1.01,-0.23,-0.14,0
-68.97,-11.54,51.21,1.00,-0.09,-0.07,0
-75.62,3.23,52.61,1.08,0.04,0.04,0
-77.33,13.61,62.26,1.21,0.21,0.16,0
-69.89,16.54,73.06,1.37,0.32,0.24,0
-55.05,13.92,78.74,1.53,0.34,0.31,0
-37.05,6.53,72.51,1.65,0.33,0.33,0
-19.04,-3.54,54.81,1.71,0.29,0.29,0
-5.25,-11.66,29.36,1.72,0.26,0.23,0
1.10,-15.99,1.71,1.66,0.24,0.18,0
2.14,-15.01,-20.75,1.57,0.20,0.14,0
0.43,-9.40,-36.80,1.49,0.20,0.10,0
-2.62,1.22,-46.51,1.44,0.19,0.07,0
-6.29,14.65,-53.77,1.42,0.16,0.07,0
-8.48,25.94,-63.23,1.39,0.10,0.06,0
-8.24,33.33,-75.44,1.32,0.03,0.03,0
-6.96,36.80,-87.59,1.23,-0.05,-0.01,0
-5.43,37.54,-97.47,1.14,-0.13,-0.04,0
-3.78,35.34,-103.70,1.04,-0.20,-0.05,0
-1.40,30.03,-106.26,0.96,-0.27,-0.07,0
2.01,22.83,-105.96,0.86,-0.32,-0.08,0
7.39,15.32,-103.15,0.79,-0.39,-0.09,0
13.61,7.02,-98.75,0.72,-0.43,-0.10,0
20.75,-1.10,-93.08,0.64,-0.49,-0.13,0
28.63,-7.93,-86.43,0.57,-0.57,-0.17,0
34.48,-12.08,-79.53,0.52,-0.65,-0.22,0
37.17,-14.10,-72.75,0.45,-0.72,-0.28,0
36.50,-14.53,-67.08,0.37,-0.81,-0.33,0
33.39,-12.82,-61.95,0.28,-0.90,-0.40,0
25.45,-8.73,-54.44,0.18,-0.97,-0.43,0
14.22,-4.03,-44.80,0.09,-1.02,-0.45,0
4.82,-0.67,-35.64,-0.02,-1.08,-0.45,0
-0.98,2.01,-27.40,-0.14,-1.18,-0.45,0
-6.53,4.21,-16.85,-0.31,-1.20,-0.48,0
-12.51,8.73,1.83,-0.49,-1.23,-0.50,0
-17.46,15.08,29.97,-0.60,-1.28,-0.52,0
-23.07,18.31,63.78,-0.69,-1.25,-0.51,0
-27.22,14.65,98.69,-0.80,-1.21,-0.52,0
-30.70,7.69,133.97,-0.93,-1.17,-0.56,0
-39.98,2.87,172.42,-1.08,-1.05,-0.60,0
-55.42,7.45,216.61,-1.17,-0.88,-0.62,0
-76.05,24.05,265.87,-1.15,-0.69,-0.61,0
-98.39,47.67,312.74,-1.07,-0.37,-0.56,0
-118.10,75.20,353.76,-0.88,-0.07,-0.38,0
-128.36,95.64,385.62,-0.60,0.30,-0.11,0
-120.30,95.89,406.49,-0.26,0.73,0.17,0
-89.42,69.70,422.12,0.04,1.24,0.40,0
-38.76,24.29,445.86,0.38,2.12,0.61,0
26.12,-25.39,493.90,0.80,2.80,0.43,0
80.32,-50.60,524.41,1.57,2.96,0.32,0
108.22,-33.45,494.26,2.40,2.79,0.31,0
107.73,3.85,394.78,2.98,2.46,0.22,0
76.11,33.26,256.53,3.05,2.18,0.06,0
22.89,46.69,139.16,2.88,2.06,0.07,0
-13.73,45.41,76.42,2.85,1.90,0.23,0
-16.78,32.84,50.42,2.83,1.88,0.16,0
2.01,26.31,39.61,2.88,1.93,-0.01,0
23.56,27.40,29.91,2.97,1.93,-0.16,0
29.24,21.24,7.08,2.91,2.03,-0.23,0
33.87,4.03,-22.40,2.71,2.04,-0.34,0
38.15,-12.45,-53.41,2.41,1.88,-0.49,0
33.33,-15.08,-90.52,2.25,1.92,-0.46,0
29.17,-15.63,-117.13,1.88,1.59,-0.40,0
18.19,-18.31,-145.94,1.63,1.47,-0.28,0
5.62,-23.44,-173.71,1.40,1.49,-0.08,0
13.61,-35.03,-193.05,1.17,1.44,0.16,0
36.44,-55.05,-204.16,0.94,1.33,0.24,0
57.92,-74.10,-207.95,0.69,1.12,0.18,0
71.41,-76.60,-207.82,0.50,0.93,0.11,0
77.21,-60.73,-204.47,0.40,0.74,0.12,0
75.56,-40.71,-199.10,0.33,0.63,0.09,0
70.07,-21.00,-195.13,0.33,0.49,0.08,0
67.57,-5.37,-197.88,0.33,0.34,0.04,0
65.92,2.38,-204.35,0.25,0.23,-0.02,0
61.58,5.00,-207.82,0.17,0.15,-0.08,0
57.01,7.14,-204.22,0.08,0.06,-0.13,0
55.91,11.66,-193.73,0.06,-0.08,-0.15,0
56.76,14.22,-180.91,0.06,-0.18,-0.19,0
59.02,15.01,-167.11,0.07,-0.27,-0.24,0
62.44,15.69,-153.26,0.12,-0.40,-0.28,0
63.96,15.44,-140.87,0.16,-0.47,-0.30,0
63.96,13.18,-129.58,0.22,-0.55,-0.33,0
62.01,9.58,-119.14,0.27,-0.64,-0.38,0
55.60,7.02,-110.84,0.33,-0.71,-0.42,0
45.04,6.23,-105.53,0.37,-0.76,-0.41,0
33.57,5.55,-100.52,0.40,-0.81,-0.39,0
23.13,5.80,-94.42,0.42,-0.85,-0.38,0
14.28,8.61,-88.01,0.42,-0.88,-0.36,0
7.81,10.99,-80.44,0.44,-0.88,-0.32,0
6.10,9.70,-69.34,0.42,-0.90,-0.29,0
8.00,5.55,-55.18,0.41,-0.92,-0.28,0
11.54,1.22,-40.59,0.40,-0.93,-0.28,0
14.71,-1.53,-27.28,0.38,-0.94,-0.30,0
15.81,-1.71,-15.81,0.38,-0.95,-0.33,0
13.79,0.06,-6.16,0.38,-0.97,-0.35,0
8.12,2.38,1.59,0.34,-0.92,-0.42,0
-1.22,5.07,8.91,0.35,-0.95,-0.51,0
-15.38,4.33,13.43,0.38,-0.95,-0.57,0
-30.52,-2.87,13.55,0.32,-0.96,-0.61,0
-42.66,-12.82,12.39,0.18,-1.08,-0.62,0
-52.98,-23.44,12.94,-0.05,-1.22,-0.69,0
-62.81,-27.95,25.63,-0.25,-1.29,-0.72,0
-75.68,-27.16,53.10,-0.44,-1.48,-0.76,0
-86.36,-21.97,83.19,-0.64,-1.58,-0.77,0
-101.62,-11.96,116.82,-0.85,-1.48,-0.73,0
-118.84,-2.14,156.86,-1.01,-1.37,-0.74,0
-135.38,12.27,196.72,-1.03,-1.12,-0.66,0
-152.22,27.28,234.86,-0.98,-0.74,-0.42,0
-156.68,31.80,272.95,-0.84,-0.18,-0.09,0
-139.34,20.08,316.59,-0.59,0.66,0.28,0
-104.00,-5.13,368.77,-0.16,1.72,0.63,0
-62.56,-25.57,423.95,0.58,2.61,0.72,0
-28.69,-6.90,445.80,1.60,2.97,0.72,0
-13.85,52.98,392.76,2.32,2.82,0.68,0
-31.56,107.54,274.35,2.58,2.54,0.69,0
-56.88,124.69,159.61,2.52,2.48,0.73,0
-52.98,101.20,100.10,2.52,2.37,0.80,0
-11.60,63.23,85.08,2.57,2.05,0.68,0
38.02,41.02,81.24,2.64,1.88,0.29,0
67.93,45.23,72.20,2.79,1.81,-0.04,0
77.15,55.60,52.31,2.90,1.86,-0.32,0
71.66,56.64,18.98,2.94,1.91,-0.46,0
57.25,51.39,-27.34,2.83,1.95,-0.55,0
40.22,43.88,-80.38,2.55,1.90,-0.55,0
27.95,33.81,-124.21,2.19,1.76,-0.55,0
20.87,20.20,-155.09,1.85,1.57,-0.52,0
16.42,4.58,-176.70,1.54,1.39,-0.43,0
15.14,-9.40,-195.13,1.22,1.24,-0.34,0
18.07,-19.29,-209.05,0.93,1.11,-0.23,0
22.71,-25.70,-214.97,0.71,0.99,-0.11,0
31.25,-29.17,-215.39,0.57,0.82,0.00,0
43.09,-33.51,-214.84,0.42,0.74,0.06,0
53.96,-36.07,-210.75,0.36,0.60,0.08,0
62.99,-31.49,-206.67,0.34,0.43,0.08,0
65.92,-22.28,-207.21,0.28,0.27,0.05,0
63.42,-10.68,-207.70,0.22,0.10,0.01,0
56.76,-1.04,-205.44,0.20,-0.04,0.02,0
51.57,4.39,-199.77,0.15,-0.18,0.04,0
52.19,6.47,-189.45,0.10,-0.30,-0.00,0
55.79,9.64,-174.99,0.08,-0.46,-0.07,0
59.94,14.22,-158.69,0.10,-0.58,-0.15,0
64.09,17.21,-142.88,0.11,-0.69,-0.19,0
71.78,16.36,-126.89,0.14,-0.78,-0.25,0
80.14,10.80,-110.35,0.15,-0.86,-0.35,0
84.23,5.68,-94.06,0.18,-0.97,-0.47,0
78.98,6.16,-81.24,0.23,-1.03,-0.55,0
66.22,10.86,-74.28,0.28,-1.05,-0.57,0
50.78,13.73,-70.31,0.33,-1.02,-0.55,0
36.99,10.86,-66.16,0.38,-1.00,-0.51,0
26.55,4.46,-61.77,0.41,-0.97,-0.48,0
18.07,-1.71,-55.73,0.45,-0.91,-0.44,0
12.63,-5.92,-47.79,0.49,-0.85,-0.40,0
9.40,-6.65,-39.25,0.51,-0.77,-0.40,0
7.08,-4.03,-28.08,0.56,-0.72,-0.36,0
6.10,-1.83,-15.93,0.64,-0.68,-0.30,0
7.26,-2.20,-7.02,0.71,-0.64,-0.25,0
10.56,-4.76,-1.46,0.77,-0.59,-0.23,0
14.10,-8.12,1.71,0.84,-0.57,-0.23,0
14.83,-12.57,0.24,0.87,-0.56,-0.25,0
11.47,-17.52,-3.97,0.86,-0.52,-0.27,0
3.72,-19.47,-7.14,0.87,-0.48,-0.24,0
-4.58,-17.58,-9.95,0.90,-0.42,-0.19,0
-10.38,-13.00,-12.82,0.85,-0.36,-0.20,0
-14.83,-5.55,-10.99,0.85,-0.35,-0.16,0
-17.40,0.06,-5.19,0.88,-0.34,-0.09,0
-15.32,1.83,0.79,0.88,-0.35,-0.06,0
-8.61,2.99,6.29,0.87,-0.36,-0.05,0
-0.55,2.93,12.63,0.88,-0.36,-0.07,0
6.47,1.28,18.55,0.89,-0.38,-0.09,0
11.96,-0.43,21.67,0.89,-0.40,-0.12,0
14.95,-1.34,23.25,0.89,-0.37,-0.15,0
14.89,-1.10,24.84,0.93,-0.37,-0.17,0
12.57,-0.55,23.50,0.96,-0.37,-0.18,0
8.67,-0.79,18.98,0.95,-0.37,-0.19,0
4.09,-1.04,14.71,0.94,-0.38,-0.20,0
-0.79,-1.34,12.57,0.94,-0.38,-0.19,0
-4.70,-2.69,10.31,0.95,-0.40,-0.18,0
-6.41,-5.37,6.71,0.94,-0.41,-0.17,0
-6.84,-8.36,3.36,0.89,-0.41,-0.18,0
-7.32,-9.77,3.17,0.83,-0.45,-0.18,0
-7.93,-9.28,6.59,0.79,-0.48,-0.19,0
-8.36,-7.20,10.80,0.77,-0.51,-0.20,0
-9.16,-4.03,14.71,0.74,-0.54,-0.23,0
-11.84,-0.43,18.37,0.73,-0.56,-0.25,0
-16.11,2.56,21.30,0.72,-0.54,-0.24,0
-19.04,4.03,24.05,0.72,-0.52,-0.21,0
-20.08,2.50,27.77,0.72,-0.43,-0.19,0
-18.74,-0.18,34.42,0.77,-0.39,-0.15,0
-15.75,-2.62,40.41,0.83,-0.35,-0.12,0
-12.45,-4.82,43.70,0.89,-0.32,-0.10,0
-9.77,-6.90,43.95,0.94,-0.29,-0.10,0
-8.61,-8.54,42.42,0.97,-0.27,-0.11,0
-9.83,-10.19,40.34,1.00,-0.27,-0.10,0
-12.45,-12.51,37.41,1.04,-0.22,-0.09,0
-14.22,-15.63,34.18,1.08,-0.18,-0.07,0
-14.04,-18.55,30.52,1.10,-0.16,-0.06,0
-14.16,-19.65,26.55,1.08,-0.11,-0.07,0
-16.54,-16.97,24.41,1.09,-0.05,-0.05,0
-19.78,-10.38,24.41,1.14,-0.01,-0.01,0
-22.77,-2.08,22.71,1.18,0.06,0.01,0
-27.16,8.42,19.53,1.25,0.15,0.05,0
-28.87,19.96,15.20,1.31,0.17,0.09,0
-26.61,26.79,7.51,1.34,0.15,0.11,0
-21.30,27.10,-2.75,1.33,0.10,0.11,0
-15.08,21.48,-12.76,1.27,0.02,0.08,0
-10.50,14.16,-21.79,1.17,-0.11,0.05,0
-6.59,8.18,-29.36,1.05,-0.28,0.01,0
-1.83,4.15,-36.38,0.89,-0.45,-0.08,0
1.95,3.66,-41.56,0.70,-0.62,-0.20,0
2.32,5.13,-43.64,0.51,-0.80,-0.34,0
-0.12,6.90,-41.32,0.30,-1.08,-0.51,0
-5.98,6.29,-34.67,0.03,-1.29,-0.68,0
-23.86,3.23,-18.19,-0.23,-1.49,-0.90,0
-48.89,3.36,4.76,-0.39,-1.81,-1.01,0
-73.91,4.15,20.32,-0.61,-1.96,-1.03,0
-101.62,-5.37,32.23,-0.88,-1.93,-1.04,0
-125.98,-13.18,52.55,-1.12,-1.79,-0.97,0
-144.84,-13.06,84.90,-1.26,-1.58,-0.85,0
-157.17,-5.74,126.34,-1.35,-1.26,-0.74,0
-161.44,9.52,175.17,-1.31,-0.91,-0.54,0
-155.82,20.14,228.21,-1.06,-0.31,-0.16,0
-131.65,5.43,287.54,-0.67,0.61,0.14,0
-82.03,-35.89,349.00,-0.20,1.22,0.24,0
-24.60,-83.13,394.65,0.29,1.47,0.21,0
-2.14,-117.43,413.27,0.85,1.92,0.19,0
-19.53,-120.97,400.39,1.51,2.14,0.42,0
-43.15,-95.03,342.35,1.93,2.02,0.75,0
-56.64,-56.03,245.79,1.95,1.88,0.96,0
-61.28,-18.68,159.55,1.71,1.73,0.98,0
-48.34,8.54,119.87,1.58,1.53,0.98,0
-23.86,22.34,120.24,1.58,1.34,0.92,0
7.51,22.58,138.37,1.62,1.29,0.77,0
43.58,17.15,156.31,1.72,1.51,0.55,0
77.70,9.52,170.90,1.89,1.61,0.33,0
95.03,0.49,172.18,2.06,1.66,0.12,0
89.42,-1.10,152.83,2.26,1.67,-0.00,0
72.02,4.64,112.55,2.43,1.56,0.04,0
52.55,-0.18,57.19,2.34,1.46,0.09,0
38.51,-11.96,7.63,2.07,1.40,0.12,0
35.77,-17.70,-19.90,1.85,1.28,0.16,0
43.21,-16.54,-32.10,1.67,1.13,0.16,0
54.75,-12.39,-37.90,1.54,0.98,0.10,0
63.48,-8.85,-41.75,1.43,0.84,0.02,0
66.59,-8.79,-46.81,1.33,0.71,-0.05,0
64.58,-13.79,-53.65,1.22,0.63,-0.08,0
61.40,-23.56,-60.18,1.10,0.56,-0.08,0
60.06,-34.97,-64.88,0.99,0.49,-0.06,0
60.97,-46.45,-67.63,0.89,0.42,-0.03,0
62.74,-57.19,-69.15,0.78,0.34,-0.01,0
62.62,-65.55,-69.89,0.68,0.26,0.00,0
57.07,-68.85,-69.76,0.61,0.17,0.03,0
45.78,-65.49,-68.79,0.56,0.11,0.08,0
32.65,-55.91,-67.08,0.51,0.13,0.12,0
20.81,-41.32,-63.60,0.52,0.16,0.17,0
14.10,-24.78,-58.96,0.55,0.16,0.21,0
13.37,-10.50,-54.81,0.55,0.19,0.23,0
15.56,-1.22,-50.96,0.56,0.24,0.24,0
19.53,5.31,-46.14,0.56,0.25,0.24,0
24.60,10.19,-40.41,0.60,0.20,0.22,0
25.94,11.17,-37.05,0.63,0.15,0.20,0
24.17,8.54,-36.50,0.63,0.11,0.16,0
20.51,6.84,-36.62,0.63,0.10,0.14,0
14.89,7.81,-36.19,0.63,0.13,0.12,0
8.36,11.54,-34.36,0.65,0.14,0.13,0
2.14,17.15,-33.75,0.72,0.19,0.14,0
-4.46,22.22,-36.74,0.80,0.30,0.15,0
-11.47,27.47,-41.63,0.90,0.35,0.18,0
-15.63,33.33,-47.97,0.97,0.31,0.23,0
-14.77,37.48,-55.54,1.03,0.20,0.21,0
-12.76,37.78,-61.65,1.04,0.10,0.14,0
-11.78,35.52,-62.68,1.06,-0.01,0.08,0
-12.02,31.80,-59.45,1.06,-0.11,0.04,0
-13.79,29.30,-54.38,1.07,-0.17,0.02,0
-15.01,28.99,-49.19,1.05,-0.18,0.01,0
-15.20,30.46,-44.56,1.00,-0.16,-0.03,0
-15.26,33.08,-40.16,0.95,-0.13,-0.06,0
-15.20,34.85,-35.71,0.89,-0.08,-0.08,0
-14.16,33.75,-32.04,0.84,-0.07,-0.08,0
-12.21,29.85,-29.30,0.78,-0.08,-0.08,0
-10.86,23.93,-27.47,0.73,-0.10,-0.07,0
-10.44,16.97,-25.57,0.69,-0.15,-0.08,0
-10.50,11.35,-23.19,0.65,-0.20,-0.07,0
-11.17,7.20,-20.45,0.62,-0.26,-0.06,0
-13.18,4.03,-17.09,0.59,-0.30,-0.03,0
-14.34,1.10,-11.35,0.59,-0.26,0.00,0
-13.06,-3.66,-0.49,0.62,-0.24,0.03,0
-9.70,-10.19,12.51,0.67,-0.22,0.06,0
-5.31,-20.81,24.05,0.71,-0.15,0.06,0
-2.56,-32.59,34.79,0.74,-0.07,0.06,0
-2.56,-39.37,44.49,0.79,-0.00,0.08,0
-4.94,-41.44,51.57,0.84,0.07,0.13,0
-7.75,-39.92,55.54,0.91,0.13,0.19,0
-9.22,-35.58,56.03,0.98,0.18,0.23,0
-9.34,-29.30,52.98,1.03,0.23,0.28,0
-8.91,-22.34,48.83,1.09,0.29,0.32,0
-7.93,-16.85,44.31,1.14,0.30,0.36,0
-5.25,-13.79,39.06,1.16,0.29,0.38,0
-2.26,-13.12,33.51,1.15,0.28,0.38,0
-0.24,-14.22,28.87,1.13,0.26,0.37,0
0.67,-16.30,25.21,1.10,0.25,0.35,0
1.40,-17.70,22.34,1.06,0.25,0.35,0
1.95,-17.64,20.20,1.02,0.28,0.34,0
3.48,-15.26,19.59,1.00,0.30,0.34,0
6.90,-11.47,20.45,1.00,0.32,0.33,0
10.25,-8.30,21.61,1.00,0.34,0.30,0
12.76,-3.66,22.64,1.01,0.30,0.29,0
14.28,1.16,22.16,1.02,0.28,0.28,0
14.71,3.42,21.06,1.01,0.27,0.26,0
15.08,4.09,19.78,1.01,0.24,0.23,0
14.95,5.19,18.01,1.00,0.23,0.21,0
13.67,6.84,15.44,0.99,0.24,0.19,0
11.78,9.52,13.43,0.99,0.23,0.19,0
9.58,12.63,11.29,1.00,0.25,0.17,0
8.61,15.87,9.77,1.00,0.26,0.18,0
8.42,17.88,8.42,1.01,0.28,0.19,0
7.93,17.82,7.08,1.04,0.30,0.20,0
10.62,16.30,5.74,1.06,0.29,0.20,0
14.16,12.63,2.75,1.05,0.26,0.17,0
15.01,9.77,-0.73,1.01,0.23,0.14,0
13.24,8.48,-3.11,0.99,0.18,0.11,0
10.93,8.12,-4.76,0.94,0.09,0.09,0
8.30,7.93,-6.90,0.88,-0.01,0.05,0
5.19,9.40,-9.64,0.78,-0.18,0.00,0
3.72,14.89,-12.57,0.61,-0.46,-0.10,0
4.52,24.54,-16.17,0.30,-0.76,-0.21,0
0.06,35.22,-12.02,-0.03,-0.85,-0.34,0
-11.17,38.76,7.81,-0.33,-0.81,-0.46,0
-14.10,32.71,45.53,-0.57,-0.81,-0.50,0
-12.70,14.22,93.32,-0.71,-0.81,-0.54,0
-15.69,-8.54,141.24,-0.72,-0.68,-0.47,0
-14.89,-30.64,183.53,-0.64,-0.33,-0.33,0
-5.98,-53.59,226.38,-0.47,0.04,-0.16,0
7.93,-74.71,266.72,-0.19,0.41,-0.11,0
18.19,-91.55,295.65,0.20,0.79,-0.00,0
15.08,-103.58,309.27,0.66,1.11,0.14,0
10.19,-107.97,297.97,1.09,1.33,0.32,0
5.00,-92.77,257.14,1.09,0.52,2.52,0
-34.73,65.49,142.09,1.74,2.23,2.01,0
-84.35,170.78,72.27,1.17,3.26,0.70,0
16.17,142.64,145.08,1.77,1.60,0.52,0
87.89,0.79,189.33,2.29,0.86,0.42,0
66.77,-117.68,149.84,1.95,1.11,0.10,0
22.34,-115.84,100.52,1.82,1.54,0.10,0
-13.79,-53.89,68.36,1.94,1.87,0.44,0
-23.25,-6.59,35.40,2.11,2.08,0.81,0
-8.00,-4.15,-0.18,2.06,2.09,0.92,0
13.43,-21.42,-33.26,1.82,1.98,0.81,0
25.45,-24.66,-59.75,1.60,1.84,0.63,0
24.05,-5.37,-77.27,1.47,1.62,0.50,0
14.10,26.49,-92.71,1.40,1.49,0.48,0
7.20,50.17,-109.31,1.31,1.52,0.50,0
9.34,56.95,-120.61,1.22,1.54,0.51,0
18.86,51.39,-126.71,1.15,1.55,0.54,0
30.03,40.22,-133.18,1.16,1.62,0.55,0
37.96,28.20,-143.07,1.02,1.56,0.49,0
30.40,27.59,-154.05,0.96,1.60,0.45,0
36.80,35.89,-172.67,0.94,1.35,0.41,0
29.91,51.64,-191.53,0.78,1.38,0.51,0
46.33,67.26,-209.59,0.73,1.18,0.60,0
55.42,70.31,-214.23,0.61,0.82,0.48,0
41.50,71.72,-212.04,0.40,0.63,0.27,0
37.05,84.59,-209.23,0.31,0.53,0.27,0
46.69,97.66,-204.90,0.29,0.34,0.29,0
51.88,96.44,-197.08,0.23,0.14,0.18,0
48.71,87.34,-187.01,0.14,0.05,0.00,0
47.12,81.60,-175.60,0.12,-0.08,-0.11,0
42.72,77.51,-165.10,0.10,-0.21,-0.22,0
26.61,75.81,-156.37,0.09,-0.34,-0.35,0
1.10,81.42,-149.60,0.11,-0.42,-0.39,0
-25.21,91.13,-146.79,0.17,-0.43,-0.33,0
-45.41,95.34,-145.81,0.23,-0.40,-0.20,0
-50.11,87.34,-142.76,0.25,-0.35,-0.04,0
-35.03,66.47,-133.97,0.25,-0.36,0.02,0
-9.58,41.56,-119.51,0.24,-0.43,-0.00,0
14.40,22.83,-102.17,0.25,-0.51,-0.08,0
31.56,13.55,-84.84,0.29,-0.57,-0.14,0
42.72,12.08,-69.15,0.33,-0.61,-0.21,0
49.07,15.99,-54.08,0.36,-0.69,-0.30,0
46.94,22.28,-39.49,0.45,-0.75,-0.37,0
40.16,26.73,-26.55,0.54,-0.76,-0.40,0
32.65,26.55,-17.03,0.63,-0.75,-0.43,0
25.70,20.94,-11.23,0.71,-0.74,-0.47,0
18.68,10.56,-8.24,0.73,-0.74,-0.50,0
10.25,-1.40,-7.51,0.73,-0.72,-0.52,0
1.10,-12.21,-6.71,0.71,-0.69,-0.50,0
-7.51,-23.01,-5.31,0.68,-0.67,-0.45,0
-14.16,-32.90,-2.93,0.65,-0.63,-0.42,0
-19.71,-39.37,0.61,0.63,-0.63,-0.36,0
-25.57,-43.82,3.97,0.60,-0.57,-0.31,0
-30.40,-48.03,8.54,0.55,-0.52,-0.26,0
-33.69,-51.03,17.15,0.51,-0.50,-0.22,0
-37.23,-52.12,28.75,0.49,-0.42,-0.16,0
-39.86,-51.33,42.66,0.51,-0.33,-0.10,0
-42.11,-48.28,58.17,0.55,-0.26,-0.03,0
-44.86,-40.71,70.25,0.62,-0.16,0.02,0
-46.02,-29.24,78.86,0.70,-0.08,0.07,0
-44.49,-16.97,83.19,0.82,-0.03,0.11,0
-43.27,-9.95,82.40,0.91,0.02,0.13,0
-41.99,-10.31,78.19,0.95,0.03,0.14,0
-39.25,-15.38,71.84,0.98,0.01,0.17,0
-35.10,-24.90,65.31,0.98,-0.00,0.21,0
-28.38,-38.09,59.69,0.96,-0.03,0.22,0
-19.90,-52.12,54.99,0.93,-0.04,0.22,0
-11.66,-65.80,52.37,0.87,-0.06,0.21,0
-5.07,-78.43,51.70,0.75,-0.06,0.11,0
-4.09,-83.25,55.91,0.63,-0.07,0.00,0
-10.25,-75.93,65.06,0.55,-0.14,-0.04,0
-23.74,-61.77,73.12,0.50,-0.19,-0.05,0
-40.34,-45.90,75.93,0.41,-0.22,-0.04,0
-54.32,-28.93,76.60,0.32,-0.22,-0.06,0
-66.04,-11.78,80.93,0.26,-0.12,-0.01,0
-70.19,-3.60,92.77,0.29,0.04,0.15,0
-54.02,-15.08,113.16,0.35,0.17,0.29,0
-21.61,-48.40,139.16,0.36,0.25,0.28,0
8.48,-87.59,166.87,0.38,0.16,0.15,0
21.42,-112.00,186.77,0.41,0.10,-0.05,0
12.27,-112.06,194.03,0.37,0.07,-0.28,0
-21.06,-82.15,192.57,0.32,0.19,-0.48,0
-88.07,-24.29,185.73,0.45,0.61,-0.32,0
-157.41,33.33,180.73,0.83,1.31,0.19,0
-176.21,57.98,179.57,1.28,1.95,0.78,0
-132.87,33.20,179.08,1.75,2.35,1.29,0
-51.03,-31.62,173.71,2.04,2.56,1.50,0
38.57,-100.52,158.20,2.27,2.45,1.36,0
105.47,-131.77,128.72,2.27,2.22,1.65,0
125.18,-99.67,81.42,2.49,2.73,1.18,0
109.37,-58.96,48.71,2.68,2.52,1.01,0
82.09,-28.87,14.16,2.95,2.37,1.09,0
38.27,15.99,-47.91,2.96,2.23,1.21,0
2.62,74.28,-119.14,2.80,2.30,1.29,0
-9.40,116.82,-172.24,2.53,2.44,1.39,0
7.75,122.44,-202.39,2.22,2.41,1.38,0
48.52,101.44,-221.37,1.81,2.16,1.13,0
89.05,79.71,-240.30,1.33,1.80,0.75,0
106.87,72.45,-260.62,0.83,1.42,0.42,0
104.80,77.58,-280.15,0.36,0.97,0.17,0
95.21,88.87,-294.31,-0.06,0.52,-0.01,0
83.01,97.17,-294.49,-0.39,0.15,-0.10,0
74.10,95.58,-277.22,-0.56,-0.10,-0.16,0
71.04,82.15,-246.52,-0.61,-0.27,-0.20,0
75.68,61.28,-210.39,-0.59,-0.42,-0.27,0
82.82,40.47,-176.70,-0.51,-0.53,-0.35,0
85.45,28.08,-150.27,-0.44,-0.59,-0.43,0
80.69,24.05,-128.78,-0.33,-0.64,-0.46,0
70.37,22.89,-111.33,-0.21,-0.66,-0.46,0
59.63,21.73,-99.00,-0.10,-0.65,-0.43,0
50.17,19.29,-88.81,-0.00,-0.60,-0.40,0
42.91,14.65,-79.04,0.10,-0.59,-0.36,0
39.00,7.81,-70.01,0.17,-0.56,-0.33,0
37.11,-0.37,-60.67,0.23,-0.55,-0.31,0
36.13,-7.08,-50.72,0.30,-0.56,-0.29,0
33.87,-11.23,-41.44,0.37,-0.57,-0.28,0
29.11,-14.10,-33.39,0.42,-0.55,-0.26,0
22.52,-15.44,-25.51,0.47,-0.53,-0.24,0
13.67,-15.50,-17.76,0.55,-0.53,-0.20,0
4.33,-14.40,-12.21,0.62,-0.52,-0.15,0
-2.69,-12.08,-9.28,0.67,-0.48,-0.06,0
-4.82,-12.02,-6.41,0.72,-0.44,0.00,0
-2.81,-14.83,-1.65,0.76,-0.44,0.03,0
1.53,-17.52,5.31,0.81,-0.46,0.05,0
5.98,-19.10,12.21,0.85,-0.49,0.06,0
8.48,-18.25,17.88,0.89,-0.53,0.07,0
7.57,-15.38,21.85,0.93,-0.55,0.08,0
4.03,-10.56,24.66,0.94,-0.58,0.08,0
-1.46,-3.60,26.31,0.94,-0.55,0.07,0
-7.69,4.33,28.20,0.94,-0.52,0.08,0
-13.73,9.70,29.24,0.94,-0.42,0.10,0
-16.72,11.84,29.97,0.94,-0.33,0.14,0
-14.77,9.95,30.94,0.91,-0.27,0.14,0
-10.13,5.55,31.49,0.89,-0.23,0.13,0
-5.49,0.18,31.98,0.86,-0.20,0.09,0
-2.14,-5.55,33.14,0.82,-0.21,0.07,0
-0.98,-9.58,34.24,0.79,-0.24,0.06,0
-3.05,-12.02,34.18,0.75,-0.26,0.05,0
-7.81,-13.00,34.12,0.72,-0.27,0.06,0
-13.43,-10.62,35.22,0.68,-0.27,0.06,0
-18.19,-5.92,37.84,0.65,-0.29,0.07,0
-22.52,0.61,41.63,0.64,-0.28,0.09,0
-25.76,5.98,46.45,0.63,-0.25,0.13,0
-25.39,9.16,53.22,0.64,-0.24,0.15,0
-20.02,10.13,61.16,0.65,-0.24,0.15,0
-13.00,10.19,69.21,0.64,-0.20,0.11,0
-6.10,11.11,78.61,0.65,-0.21,0.06,0
-1.71,13.06,87.65,0.70,-0.19,-0.00,0
-1.65,13.37,93.14,0.75,-0.15,-0.06,0
-8.48,10.38,94.42,0.79,-0.13,-0.12,0
-20.63,6.90,92.77,0.82,-0.09,-0.17,0
-35.22,5.31,89.29,0.83,-0.06,-0.17,0
-48.10,4.88,85.02,0.83,-0.04,-0.15,0
-56.64,2.62,81.60,0.83,0.01,-0.09,0
-58.29,-3.60,80.20,0.82,0.04,-0.01,0
-52.49,-15.75,82.15,0.78,0.03,0.02,0
-42.54,-31.92,86.67,0.72,-0.00,0.02,0
-33.14,-47.97,93.75,0.64,-0.02,0.00,0
-25.70,-60.91,103.27,0.59,-0.02,0.02,0
-18.62,-73.73,115.11,0.54,-0.01,0.07,0
-7.75,-92.65,131.23,0.74,0.32,0.26,0
24.84,-137.94,172.67,0.50,0.10,0.28,0
66.47,-167.48,183.11,0.32,-0.41,0.28,0
72.69,-186.10,156.56,0.76,0.53,0.74,0
95.83,-252.62,185.42,0.58,1.02,0.64,0
151.49,-301.70,222.96,0.63,0.80,0.40,0
165.83,-319.09,235.60,0.67,0.68,0.24,0
134.40,-296.20,228.70,0.70,0.63,0.19,0
81.12,-242.43,202.94,0.76,0.66,0.20,0
10.31,-169.19,161.62,0.87,0.84,0.52,0
-53.96,-104.31,118.35,1.02,1.17,1.04,0
-83.80,-75.68,86.98,1.18,1.50,1.60,0
-65.43,-87.04,72.20,1.27,1.67,1.97,0
-12.88,-116.76,70.37,1.30,1.57,2.02,0
49.01,-135.01,70.80,1.28,1.37,1.88,0
96.92,-129.09,63.72,1.24,1.14,1.66,0
113.10,-104.43,50.66,1.20,0.99,1.46,0
101.68,-73.06,34.24,1.19,1.05,1.29,0
74.46,-43.82,15.32,1.20,1.11,1.23,0
36.80,-18.68,-8.54,1.19,1.26,1.37,0
-3.36,-0.12,-37.96,1.18,1.49,1.63,0
-23.74,15.26,-67.75,1.18,1.63,1.97,0
-16.42,22.89,-94.54,1.14,1.70,2.24,0
14.89,24.35,-116.52,1.01,1.72,2.39,0
60.36,29.30,-131.04,0.82,1.67,2.34,0
105.10,45.96,-134.28,0.63,1.50,2.10,0
134.70,77.82,-131.16,0.27,1.16,1.54,0
143.19,142.70,-139.71,0.46,0.83,1.37,0
117.19,213.50,-160.03,0.82,1.38,1.40,0
86.49,228.27,-148.13,0.70,0.88,1.53,0
72.20,189.03,-163.09,0.55,0.76,0.99,0
79.22,192.08,-210.63,0.37,1.08,0.89,0
87.40,195.80,-211.79,0.22,0.75,0.78,0
96.68,189.58,-214.84,0.14,0.56,0.60,0
108.09,184.51,-220.09,0.02,0.48,0.39,0
131.41,178.34,-214.23,-0.10,0.20,0.11,0
140.93,169.37,-202.09,-0.22,-0.08,-0.19,0
127.93,164.06,-183.35,-0.28,-0.28,-0.43,0
105.83,162.90,-161.25,-0.25,-0.42,-0.56,0
83.74,161.74,-141.17,-0.15,-0.52,-0.55,0
71.72,155.76,-125.92,-0.09,-0.60,-0.54,0
71.78,141.24,-114.81,-0.03,-0.62,-0.46,0
88.38,113.53,-101.44,-0.06,-0.62,-0.49,0
114.81,72.88,-78.55,-0.11,-0.74,-0.70,0
132.39,40.34,-52.06,-0.10,-0.88,-0.94,0
132.08,25.39,-28.44,-0.02,-1.00,-1.08,0
116.33,20.51,-12.33,0.09,-1.06,-1.14,0
94.06,19.47,-4.58,0.19,-1.05,-1.17,0
68.85,16.54,0.06,0.30,-1.00,-1.10,0
44.31,4.09,4.94,0.41,-0.93,-1.04,0
24.35,-16.36,10.01,0.50,-0.89,-0.95,0
10.38,-38.33,13.73,0.56,-0.84,-0.84,0
1.59,-60.91,17.76,0.62,-0.77,-0.67,0
-1.89,-85.27,24.23,0.68,-0.67,-0.51,0
0.49,-110.66,34.00,0.76,-0.58,-0.32,0
9.83,-137.39,46.63,0.84,-0.53,-0.17,0
21.55,-163.15,57.07,0.89,-0.47,-0.03,0
30.09,-185.12,64.27,0.90,-0.40,0.13,0
35.71,-201.48,69.15,0.93,-0.33,0.30,0
41.93,-209.96,70.13,0.93,-0.24,0.45,0
48.83,-213.87,68.48,0.91,-0.18,0.53,0
54.69,-211.61,63.35,0.86,-0.14,0.60,0
59.33,-203.31,55.85,0.82,-0.15,0.65,0
62.32,-191.96,48.58,0.76,-0.11,0.69,0
64.82,-180.85,43.70,0.75,-0.05,0.82,0
71.04,-179.26,42.66,0.74,-0.04,0.89,0
78.49,-186.77,42.30,0.70,-0.08,0.84,0
79.53,-186.52,38.64,0.66,-0.09,0.84,0
73.85,-176.09,33.26,0.63,-0.13,0.85,0
63.84,-162.05,26.37,0.63,-0.20,0.86,0
49.01,-146.79,16.54,0.62,-0.22,0.91,0
35.64,-133.24,6.90,0.59,-0.20,0.94,0
26.49,-120.67,1.59,0.55,-0.22,0.96,0
19.90,-106.69,-0.12,0.52,-0.23,0.97,0
13.67,-92.47,1.04,0.51,-0.23,0.99,0
9.83,-79.35,4.76,0.51,-0.22,0.99,0
9.95,-67.08,9.16,0.53,-0.20,0.99,0
11.66,-59.33,13.18,0.53,-0.15,0.98,0
12.33,-54.75,17.52,0.51,-0.15,0.95,0
8.00,-47.42,21.42,0.52,-0.14,0.96,0
-0.37,-36.62,22.22,0.55,-0.11,1.00,0
-8.97,-24.60,20.45,0.58,-0.11,1.03,0
-16.60,-13.06,16.66,0.58,-0.11,1.02,0
-24.72,-0.73,12.82,0.61,-0.11,1.06,0
-30.46,8.97,9.52,0.63,-0.09,1.14,0
-27.89,11.47,8.73,0.59,-0.07,1.12,0
-21.55,15.08,12.45,0.57,-0.08,1.08,0
-16.24,22.09,18.74,0.61,-0.09,1.10,0
-9.64,25.82,22.77,0.65,-0.09,1.10,0
-0.67,25.51,23.50,0.63,-0.08,0.98,0
4.88,29.72,23.68,0.59,-0.10,0.82,0
0.49,42.48,25.82,0.61,-0.13,0.73,0
-11.11,56.82,27.04,0.67,-0.15,0.71,0
-22.83,67.14,23.56,0.71,-0.14,0.68,0
-31.25,74.28,17.40,0.71,-0.14,0.59,0
-39.43,83.25,12.15,0.72,-0.16,0.55,0
-47.97,91.67,8.91,0.69,-0.16,0.47,0
-56.70,98.94,9.52,0.62,-0.19,0.35,0
-70.43,109.92,15.01,0.56,-0.19,0.19,0
-85.14,127.08,24.90,0.49,-0.16,-0.02,0
-101.44,152.40,39.55,0.49,-0.33,-0.17,0
-135.25,179.81,53.34,0.33,-0.48,-0.53,0
-194.52,218.38,69.09,0.08,-0.42,-0.97,0
-235.60,270.02,92.22,0.12,-0.45,-1.26,0
-295.35,320.13,117.07,0.13,-0.57,-1.43,0
-357.18,348.75,147.09,0.22,-0.68,-1.52,0
-411.93,350.46,171.51,0.32,-0.49,-1.22,0
-432.01,312.01,194.82,0.36,-0.36,-0.87,0
-417.54,237.24,215.27,0.32,-0.23,-0.55,0
-390.81,161.07,228.33,0.25,0.08,-0.24,0
-355.22,108.28,239.75,0.22,0.28,-0.04,0
-323.06,90.03,242.00,0.36,0.82,0.47,0
-275.57,79.53,241.70,0.61,1.51,1.18,0
-186.65,46.39,241.15,0.93,1.85,1.55,0
-84.78,7.57,235.05,1.24,1.85,1.63,0
-15.81,-13.43,212.83,1.41,1.81,1.44,0
2.44,-1.59,179.63,1.55,1.72,1.27,0
-11.17,31.19,145.45,1.63,1.65,1.10,0
-36.01,61.52,118.90,1.63,1.65,0.86,0
-57.25,85.82,100.65,1.69,1.75,0.72,0
-62.19,106.63,81.12,1.74,1.96,0.53,0
-40.71,111.51,59.63,1.81,2.00,0.46,0
-7.45,88.01,31.49,1.85,2.01,0.29,0
17.82,56.64,-5.31,1.75,2.11,0.10,0
34.55,33.81,-39.37,1.56,2.10,-0.07,0
40.04,20.51,-59.14,1.46,1.92,-0.15,0
31.25,14.34,-73.55,1.39,1.60,-0.24,0
9.70,15.26,-93.57,1.30,1.44,-0.21,0
-16.17,20.20,-114.26,1.16,1.42,-0.10,0
-33.14,22.40,-128.66,1.06,1.43,0.04,0
-39.61,23.01,-138.24,0.95,1.34,0.13,0
-38.27,26.37,-146.42,0.84,1.38,0.26,0
-23.93,28.44,-153.69,0.86,1.28,0.38,0
-4.94,22.40,-161.32,0.83,1.14,0.33,0
15.26,13.49,-169.19,0.71,0.96,0.19,0
32.23,8.30,-172.49,0.58,0.78,0.07,0
41.38,12.21,-172.12,0.51,0.57,-0.01,0
37.96,19.10,-169.07,0.51,0.35,-0.09,0
22.28,21.36,-166.14,0.51,0.24,-0.18,0
0.67,21.67,-164.67,0.53,0.19,-0.23,0
-20.94,23.62,-164.06,0.53,0.11,-0.24,0
-41.02,24.96,-165.04,0.54,0.07,-0.19,0
-55.54,23.19,-165.10,0.52,0.12,-0.12,0
-59.39,19.41,-162.48,0.49,0.13,-0.06,0
-53.04,17.88,-155.76,0.46,0.04,-0.03,0
-43.15,18.19,-146.36,0.42,-0.05,-0.02,0
-32.84,19.47,-134.28,0.40,-0.10,-0.00,0
-20.75,19.71,-120.06,0.41,-0.12,-0.01,0
-9.09,20.32,-105.16,0.44,-0.16,-0.05,0
0.00,23.74,-93.20,0.50,-0.20,-0.08,0
3.78,27.22,-84.90,0.58,-0.24,-0.12,0
3.66,26.37,-78.98,0.63,-0.28,-0.19,0
-2.20,22.16,-74.40,0.70,-0.31,-0.26,0
-14.04,18.43,-73.79,0.73,-0.34,-0.29,0
-28.38,17.33,-75.26,0.73,-0.35,-0.29,0
-42.66,17.82,-75.26,0.73,-0.37,-0.28,0
-55.79,19.10,-72.08,0.71,-0.38,-0.26,0
-67.14,21.85,-66.10,0.72,-0.37,-0.20,0
-73.06,26.49,-59.57,0.72,-0.33,-0.14,0
-69.95,31.31,-51.88,0.74,-0.26,-0.07,0
-58.96,33.33,-41.14,0.77,-0.25,-0.03,0
-43.46,31.19,-30.58,0.82,-0.25,-0.02,0
-27.34,26.25,-22.83,0.86,-0.24,-0.03,0
-12.45,20.45,-17.52,0.88,-0.24,-0.05,0
-1.10,13.79,-13.92,0.89,-0.22,-0.09,0
5.68,8.24,-11.23,0.91,-0.26,-0.12,0
7.69,2.62,-10.86,0.91,-0.27,-0.16,0
5.74,-2.81,-12.21,0.88,-0.28,-0.19,0
0.61,-5.37,-12.70,0.84,-0.29,-0.22,0
-7.57,-3.23,-11.72,0.80,-0.28,-0.23,0
-17.15,3.60,-8.73,0.79,-0.30,-0.22,0
-26.86,11.90,-5.74,0.78,-0.29,-0.20,0
-33.20,18.86,-2.26,0.78,-0.28,-0.17,0
-33.87,22.64,2.56,0.78,-0.27,-0.13,0
-30.03,22.40,8.67,0.77,-0.29,-0.12,0
-23.07,18.92,14.89,0.75,-0.33,-0.11,0
-14.71,13.24,19.90,0.73,-0.38,-0.11,0
-7.14,6.04,24.11,0.68,-0.47,-0.11,0
-0.79,-2.81,27.71,0.60,-0.58,-0.12,0
3.54,-11.90,31.80,0.49,-0.72,-0.16,0
3.36,-19.71,38.02,0.36,-0.90,-0.25,0
-4.27,-25.21,46.57,0.20,-1.05,-0.34,0
-18.80,-26.55,57.74,0.01,-1.20,-0.46,0
-40.28,-23.01,72.39,-0.15,-1.29,-0.53,0
-66.89,-15.81,89.97,-0.30,-1.33,-0.51,0
-89.66,-8.61,106.69,-0.42,-1.31,-0.46,0
-105.47,-5.13,126.16,-0.54,-1.23,-0.40,0
-112.67,-3.11,149.17,-0.63,-1.04,-0.33,0
-110.84,0.18,176.27,-0.63,-0.81,-0.20,0
-100.16,0.98,204.65,-0.53,-0.49,-0.00,0
-78.12,-9.83,229.06,-0.42,-0.01,0.15,0
-48.22,-33.20,250.79,-0.23,0.59,0.27,0
-11.90,-58.84,272.71,0.05,1.27,0.31,0
20.81,-78.61,289.25,0.38,1.95,0.10,0
31.98,-73.12,293.40,0.94,2.39,-0.38,0
8.61,-24.23,273.86,1.61,2.49,-0.54,0
-33.14,35.40,217.96,2.18,2.49,-0.26,0
-73.79,62.74,145.26,2.53,2.60,0.04,0
-79.59,48.89,90.45,2.55,2.68,0.17,0
-52.98,16.85,62.44,2.69,2.81,0.16,0
-17.82,-0.31,55.85,2.94,2.72,0.15,0
27.40,-1.59,43.09,3.14,2.43,-0.02,0
57.25,-4.09,13.92,3.04,2.17,-0.25,0
55.91,-10.31,-21.18,2.86,2.05,-0.40,0
37.90,-14.16,-56.46,2.60,1.98,-0.44,0
20.81,-16.30,-90.52,2.29,1.92,-0.43,0
10.13,-18.07,-120.00,1.95,1.90,-0.39,0
2.99,-20.14,-144.78,1.70,1.92,-0.32,0
4.21,-22.64,-165.41,1.50,1.82,-0.24,0
9.34,-30.09,-186.04,1.31,1.68,-0.18,0
13.12,-38.57,-207.09,1.11,1.50,-0.10,0
18.01,-44.49,-223.02,0.89,1.28,-0.03,0
23.62,-47.06,-229.43,0.66,1.05,0.03,0
29.54,-44.68,-226.81,0.50,0.77,0.06,0
33.14,-36.19,-222.05,0.40,0.55,0.06,0
32.96,-23.68,-217.53,0.35,0.39,0.05,0
32.65,-11.11,-213.62,0.30,0.23,0.04,0
33.26,-3.78,-210.51,0.24,0.09,0.01,0
33.45,-0.79,-205.51,0.19,-0.04,-0.02,0
33.39,0.06,-197.94,0.14,-0.17,-0.06,0
32.65,-0.31,-188.84,0.09,-0.31,-0.09,0
31.01,-0.61,-179.63,0.05,-0.44,-0.11,0
28.08,-0.31,-170.35,0.02,-0.54,-0.11,0
24.90,-1.10,-159.55,-0.01,-0.59,-0.11,0
23.07,-2.56,-146.30,-0.02,-0.64,-0.11,0
23.44,-3.05,-131.90,-0.03,-0.69,-0.12,0
23.50,-2.08,-117.13,-0.04,-0.73,-0.12,0
23.68,-0.98,-101.32,0.00,-0.74,-0.12,0
23.19,-1.83,-85.63,0.05,-0.77,-0.11,0
22.28,-3.66,-72.14,0.08,-0.80,-0.13,0
20.57,-3.36,-60.49,0.10,-0.83,-0.15,0
17.40,-1.53,-48.77,0.13,-0.84,-0.15,0
13.43,-0.49,-36.50,0.17,-0.86,-0.14,0
9.83,-0.24,-23.50,0.22,-0.87,-0.13,0
6.84,-0.37,-11.60,0.27,-0.88,-0.12,0
4.33,-0.31,-1.40,0.31,-0.88,-0.12,0
2.08,0.55,8.79,0.36,-0.86,-0.13,0
-0.92,1.22,18.68,0.41,-0.85,-0.11,0
-3.05,-0.67,29.11,0.46,-0.83,-0.10,0
-4.03,-3.23,39.12,0.50,-0.80,-0.10,0
-5.13,-2.32,47.85,0.55,-0.77,-0.09,0
-5.68,1.10,55.42,0.61,-0.74,-0.08,0
-5.19,5.19,62.13,0.64,-0.68,-0.10,0
-5.49,8.42,68.48,0.69,-0.63,-0.12,0
-7.02,9.16,75.07,0.73,-0.58,-0.14,0
-8.48,6.53,79.96,0.79,-0.54,-0.13,0
-9.46,0.98,82.21,0.81,-0.46,-0.13,0
-9.46,-5.07,83.98,0.81,-0.36,-0.14,0
-8.30,-9.52,87.22,0.83,-0.25,-0.15,0
-4.58,-14.40,90.94,0.86,-0.17,-0.14,0
0.85,-21.79,93.69,0.87,-0.10,-0.14,0
4.64,-30.40,95.58,0.87,-0.00,-0.16,0
4.52,-34.73,97.72,0.86,0.10,-0.20,0
0.85,-30.21,101.75,0.88,0.14,-0.22,0
-5.98,-20.57,104.68,0.96,0.15,-0.17,0
-15.32,-13.00,102.78,1.04,0.21,-0.10,0
-22.46,-9.52,96.37,1.11,0.25,-0.02,0
-25.09,-11.90,87.89,1.17,0.34,0.06,0
-23.32,-20.63,80.75,1.21,0.44,0.13,0
-15.01,-30.82,77.45,1.28,0.52,0.20,0
0.67,-42.42,75.38,1.39,0.56,0.28,0
22.16,-59.81,70.80,1.48,0.59,0.33,0
45.72,-82.82,65.31,1.52,0.63,0.37,0
68.79,-106.99,61.28,1.53,0.62,0.40,0
86.36,-127.44,57.80,1.49,0.63,0.39,0
90.21,-138.00,53.34,1.43,0.69,0.43,0
80.51,-129.46,48.22,1.42,0.73,0.55,0
65.55,-103.09,37.17,1.44,0.86,0.81,0
50.42,-73.30,19.59,1.42,0.95,1.14,0
41.87,-45.78,-1.95,1.33,1.06,1.49,0
49.99,-16.97,-21.55,1.19,1.19,1.85,0
83.92,11.41,-28.75,1.03,1.24,2.10,0
143.68,35.10,-22.09,0.82,1.15,2.05,0
209.41,55.97,-6.96,0.62,0.92,1.77,0
255.55,82.03,12.08,0.47,0.60,1.37,0
272.52,116.52,27.22,0.37,0.29,1.00,0
264.53,155.21,34.06,0.31,0.04,0.72,0
242.37,190.19,33.81,0.24,-0.08,0.50,0
220.46,216.67,31.07,0.15,-0.10,0.30,0
208.92,232.30,34.12,0.03,-0.07,-0.02,0
208.01,242.00,47.12,-0.00,-0.02,-0.37,0
216.92,244.69,64.70,0.10,0.09,-0.65,0
233.95,226.20,83.07,0.21,0.25,-1.07,0
252.26,189.03,101.99,0.39,0.34,-1.65,0
253.30,147.58,114.20,0.78,0.32,-2.24,0
224.79,104.49,110.53,1.14,0.29,-2.84,0
170.65,66.83,86.73,1.47,0.28,-3.37,0
95.21,30.94,44.07,1.73,0.35,-3.67,0
13.49,-9.03,-4.03,1.76,0.42,-3.64,0
-56.64,-57.68,-44.25,1.65,0.54,-3.37,0
-103.76,-112.55,-71.53,1.52,0.67,-3.02,0
-121.52,-163.02,-83.25,1.38,0.75,-2.66,0
-118.04,-204.28,-87.83,1.25,0.78,-2.29,0
-106.81,-240.66,-92.04,1.10,0.82,-1.94,0
-96.92,-275.51,-96.86,0.92,0.87,-1.66,0
-94.91,-304.02,-100.28,0.70,0.83,-1.43,0
-111.63,-320.19,-103.45,0.49,0.74,-1.21,0
-152.34,-315.73,-111.02,0.31,0.70,-0.86,0
-206.05,-290.10,-123.90,0.20,0.73,-0.42,0
-255.86,-255.62,-139.83,0.13,0.73,0.01,0
-296.51,-223.69,-154.24,0.03,0.68,0.42,0
-331.30,-197.63,-164.55,-0.02,0.64,0.85,0
-356.87,-184.14,-171.69,0.06,0.54,1.35,0
-375.00,-194.95,-184.63,0.03,0.53,1.82,0
-390.56,-215.94,-201.29,-0.16,0.71,2.40,0
-380.43,-221.13,-208.68,-0.18,0.81,3.02,0
-322.20,-210.75,-206.36,-0.24,0.76,3.29,0
-246.03,-191.83,-192.32,-0.38,0.68,3.32,0
-178.28,-157.78,-159.97,-0.51,0.58,3.30,0
-106.69,-95.89,-106.38,-0.58,0.43,3.15,0
-29.66,-12.45,-40.53,-0.49,0.34,2.84,0
37.05,63.23,18.80,-0.25,0.26,2.40,0
85.94,111.76,60.36,-0.03,0.20,1.89,0
110.84,133.36,79.10,0.15,0.22,1.41,0
112.92,141.72,79.90,0.30,0.33,1.10,0
108.34,148.56,73.43,0.44,0.43,0.94,0
109.56,150.94,65.80,0.55,0.48,0.81,0
113.71,147.83,58.78,0.62,0.49,0.69,0
117.07,140.87,53.22,0.67,0.45,0.71,0
122.01,127.44,49.50,0.70,0.41,0.82,0
135.31,107.48,49.50,0.71,0.37,0.96,0
156.56,85.88,54.63,0.62,0.45,1.00,0
182.74,74.89,69.58,0.54,0.37,1.08,0
204.10,77.15,84.17,0.47,0.29,1.06,0
220.03,100.10,92.77,0.36,0.41,0.92,0
233.70,144.23,102.54,0.32,0.52,0.81,0
245.18,190.80,115.48,0.29,0.56,0.69,0
256.96,228.27,126.40,0.26,0.64,0.54,0
273.07,250.98,141.42,0.26,0.70,0.33,0
287.17,260.13,160.64,0.32,0.76,-0.03,0
293.15,262.45,175.84,0.59,0.81,-0.45,0
288.70,256.23,180.05,0.85,0.78,-0.87,0
271.36,240.11,163.82,1.12,0.75,-1.29,0
238.89,220.21,134.16,1.36,0.67,-1.76,0
190.37,200.44,99.61,1.48,0.64,-2.10,0
137.02,179.99,66.28,1.41,0.72,-2.68,0
92.65,174.62,43.15,1.62,0.55,-2.63,0
39.73,146.30,22.52,1.75,0.61,-3.02,0
-4.52,113.04,4.09,1.79,0.63,-3.10,0
-36.68,68.54,-14.89,1.80,0.63,-3.06,0
-56.95,11.96,-36.01,1.71,0.63,-2.92,0
-65.37,-55.85,-56.09,1.54,0.65,-2.82,0
-69.15,-122.80,-72.51,1.31,0.58,-2.70,0
-76.97,-176.94,-85.02,1.05,0.52,-2.57,0
-96.92,-213.56,-93.75,0.84,0.51,-2.33,0
-126.77,-237.18,-99.55,0.67,0.56,-2.00,0
-155.88,-250.61,-104.55,0.53,0.59,-1.62,0
-180.54,-255.31,-108.76,0.43,0.64,-1.25,0
-202.45,-256.04,-110.29,0.37,0.69,-0.87,0
-224.67,-258.42,-110.96,0.38,0.76,-0.54,0
-245.24,-264.95,-114.44,0.42,0.79,-0.25,0
-262.33,-273.86,-123.11,0.42,0.79,0.05,0
-275.27,-281.74,-135.56,0.34,0.79,0.30,0
-281.62,-278.93,-147.95,0.24,0.77,0.58,0
-283.81,-264.77,-154.97,0.13,0.78,0.88,0
-278.50,-239.93,-154.42,0.05,0.75,1.18,0
-264.16,-207.15,-147.16,0.03,0.68,1.47,0
-245.67,-174.19,-138.37,-0.00,0.58,1.79,0
-229.49,-150.94,-131.35,-0.07,0.44,2.13,0
-221.19,-136.17,-128.05,-0.18,0.43,2.53,0
-229.00,-127.69,-128.60,-0.19,0.72,3.14,0
-207.15,-116.33,-131.47,-0.17,0.82,3.64,0
-130.00,-100.28,-127.20,-0.44,0.71,3.50,0
-58.23,-72.20,-106.32,-0.59,0.58,3.21,0
-2.99,-27.04,-68.60,-0.54,0.33,2.93,0
53.10,24.96,-23.86,-0.46,0.08,2.43,0
102.97,84.47,17.82,-0.30,-0.09,1.79,0
132.20,142.09,53.10,-0.04,-0.20,1.17,0
138.49,182.98,75.62,0.23,-0.22,0.62,0
126.04,202.21,83.74,0.51,-0.16,0.21,0
109.56,198.49,80.26,0.75,-0.06,-0.05,0
100.04,170.96,72.20,0.91,-0.01,-0.20,0
97.47,125.37,65.98,0.99,-0.03,-0.35,0
93.63,77.58,61.77,1.03,-0.04,-0.44,0
86.73,39.18,59.08,1.06,-0.11,-0.40,0
77.64,14.71,55.42,1.07,-0.14,-0.28,0
69.46,1.95,48.83,1.07,-0.16,-0.13,0
64.82,-4.82,41.81,1.05,-0.16,0.03,0
61.58,-7.75,38.27,0.99,-0.16,0.19,0
59.39,-8.48,35.77,0.95,-0.13,0.33,0
59.39,-6.96,34.73,0.91,-0.06,0.43,0
61.58,-2.26,35.52,0.86,0.05,0.48,0
66.83,6.53,39.31,0.83,0.14,0.50,0
74.58,18.80,45.17,0.83,0.18,0.52,0
83.56,32.04,51.51,0.84,0.20,0.53,0
92.04,42.97,58.17,0.88,0.17,0.54,0
98.51,49.38,63.66,0.89,0.19,0.52,0
104.25,55.48,68.48,0.94,0.15,0.51,0
106.75,60.73,71.96,0.96,0.11,0.49,0
105.77,65.92,72.63,0.97,0.07,0.45,0
101.20,72.27,70.13,0.96,0.05,0.43,0
94.67,78.92,66.53,0.96,0.05,0.39,0
86.24,87.22,62.99,0.95,0.04,0.35,0
76.17,95.89,57.19,0.96,0.05,0.34,0
67.38,101.50,48.89,0.97,0.08,0.33,0
63.05,101.44,39.86,0.96,0.10,0.32,0
62.93,97.90,32.23,0.94,0.11,0.25,0
64.09,96.68,27.40,0.95,0.11,0.14,0
64.45,98.94,23.74,1.00,0.07,0.05,0
61.89,97.72,18.92,1.04,0.06,-0.04,0
56.52,89.66,15.14,1.06,0.04,-0.09,0
51.21,76.29,12.76,1.09,0.00,-0.10,0
45.29,59.14,11.41,1.08,-0.02,-0.08,0
39.67,41.20,9.83,1.06,-0.03,-0.03,0
36.01,27.16,7.69,1.00,-0.01,0.05,0
35.77,17.94,6.04,0.93,0.03,0.13,0
39.25,14.34,7.26,0.88,0.06,0.20,0
45.47,15.81,10.50,0.84,0.08,0.26,0
52.55,18.37,14.40,0.81,0.11,0.34,0
58.29,21.00,18.92,0.75,0.12,0.45,0
61.77,28.26,23.93,0.69,0.14,0.59,0
64.27,44.25,29.48,0.62,0.10,0.83,0
65.31,70.31,30.76,0.48,0.09,1.11,0
70.07,107.30,29.11,0.41,0.25,1.30,0
95.89,148.56,36.01,0.40,0.49,1.34,0
146.67,176.09,54.26,0.48,0.67,1.15,0
214.97,180.60,79.96,0.63,0.79,0.57,0
284.24,185.67,106.75,0.75,0.80,-0.28,0
323.91,188.17,126.77,0.95,0.68,-0.93,0
312.93,156.31,133.30,1.13,0.33,-1.68,0
257.08,139.40,124.27,1.34,-0.01,-1.96,0
162.35,121.95,91.67,1.39,-0.16,-1.79,0
65.86,96.86,50.17,1.11,-0.06,-1.55,0
2.01,89.97,20.20,0.88,0.23,-1.25,0
-19.10,92.41,11.66,0.76,0.47,-1.02,0
-6.04,85.14,17.64,0.77,0.58,-0.99,0
19.29,61.34,29.97,0.83,0.61,-1.13,0
35.58,29.66,40.34,0.89,0.62,-1.32,0
36.80,2.44,45.84,1.04,0.58,-1.47,0
22.83,-21.12,42.54,1.27,0.57,-1.59,0
-0.55,-46.63,28.63,1.43,0.56,-1.61,0
-26.73,-77.15,5.25,1.51,0.55,-1.53,0
-52.06,-109.19,-19.65,1.46,0.54,-1.39,0
-72.81,-136.23,-39.12,1.36,0.59,-1.21,0
-83.50,-153.81,-48.22,1.29,0.62,-1.01,0
-82.21,-161.13,-49.19,1.26,0.62,-0.83,0
-76.05,-162.72,-48.22,1.25,0.60,-0.67,0
-73.36,-165.83,-51.09,1.25,0.63,-0.54,0
-72.81,-169.31,-56.95,1.18,0.65,-0.45,0
-74.71,-169.19,-64.58,1.13,0.66,-0.35,0
-77.15,-167.48,-74.89,1.04,0.58,-0.22,0
-83.74,-165.83,-86.91,0.90,0.46,-0.10,0
-100.28,-162.78,-99.12,0.74,0.39,0.03,0
-120.67,-152.65,-107.67,0.63,0.33,0.16,0
-139.28,-138.12,-112.55,0.57,0.28,0.29,0
-152.95,-125.00,-115.23,0.53,0.23,0.41,0
-160.28,-114.50,-116.76,0.49,0.20,0.52,0
-160.10,-106.14,-115.36,0.48,0.17,0.66,0
-151.12,-103.33,-110.11,0.47,0.16,0.77,0
-135.56,-105.53,-100.52,0.45,0.10,0.84,0
-117.86,-108.89,-88.38,0.48,0.02,0.85,0
-103.21,-109.86,-77.39,0.51,-0.04,0.84,0
-92.83,-106.63,-68.85,0.56,-0.11,0.79,0
-87.65,-98.51,-63.11,0.58,-0.15,0.72,0
-89.36,-85.94,-60.30,0.64,-0.16,0.71,0
-95.58,-75.38,-58.29,0.71,-0.14,0.76,0
-96.50,-70.07,-58.53,0.70,-0.15,0.84,0
-92.10,-66.65,-59.75,0.61,-0.14,0.89,0
-83.80,-57.43,-59.08,0.52,-0.13,0.92,0
-70.68,-40.89,-52.92,0.47,-0.10,0.94,0
-54.20,-23.25,-40.47,0.45,-0.07,0.94,0
-36.19,-9.16,-23.68,0.46,-0.05,0.90,0
-18.62,2.44,-6.41,0.51,-0.07,0.83,0
-5.31,12.57,8.00,0.57,-0.08,0.75,0
3.78,20.32,18.86,0.62,-0.12,0.66,0
8.36,27.22,25.63,0.66,-0.12,0.59,0
8.79,32.90,30.40,0.70,-0.12,0.55,0
8.00,36.56,34.18,0.73,-0.14,0.54,0
6.29,37.78,36.32,0.76,-0.14,0.54,0
4.39,35.89,37.05,0.79,-0.11,0.53,0
4.58,32.53,37.54,0.83,-0.06,0.49,0
7.14,30.40,38.94,0.89,0.00,0.42,0
12.02,29.85,40.77,0.95,0.02,0.35,0
16.85,29.48,41.32,1.03,0.02,0.28,0
19.71,26.61,38.64,1.11,0.03,0.22,0
22.89,19.41,32.96,1.14,0.05,0.17,0
26.79,8.30,27.53,1.14,0.04,0.11,0
27.59,-3.91,24.17,1.12,0.01,0.06,0
24.11,-16.05,21.36,1.09,-0.01,0.02,0
17.70,-26.37,18.80,1.05,-0.02,-0.02,0
10.38,-30.40,16.42,1.05,0.02,-0.13,0
2.75,-25.94,14.71,1.08,0.04,-0.21,0
-5.98,-19.90,11.41,1.14,0.07,-0.34,0
-18.07,-16.36,6.47,1.28,0.15,-0.55,0
-35.22,-16.42,-0.37,1.49,0.24,-0.70,0
-53.10,-30.64,-12.76,1.72,0.34,-0.77,0
-68.36,-67.57,-32.59,1.90,0.38,-0.80,0
-82.95,-128.97,-60.36,1.96,0.39,-0.81,0
-98.39,-199.40,-94.54,1.77,0.44,-0.76,0
-113.40,-251.83,-122.92,1.42,0.56,-0.68,0
-125.98,-267.33,-133.73,1.14,0.57,-0.50,0
-133.54,-245.79,-130.49,1.07,0.50,-0.17,0
-139.65,-218.63,-128.30,1.00,0.51,0.16,0
-142.15,-205.02,-133.12,0.99,0.60,0.30,0
-142.76,-204.10,-143.86,1.04,0.62,0.42,0
-148.01,-223.27,-169.31,0.93,0.53,0.53,0
-166.56,-255.80,-207.40,0.67,0.53,0.61,0
-195.01,-277.22,-246.09,0.35,0.58,0.75,0
-224.61,-274.41,-275.94,-0.03,0.64,1.05,0
-248.96,-249.63,-294.19,-0.36,0.75,1.55,0
-251.22,-212.46,-300.35,-0.52,0.91,2.10,0
-216.86,-175.78,-291.75,-0.70,0.93,2.39,0
-156.19,-142.15,-267.70,-0.95,0.76,2.47,0
-96.86,-98.33,-227.84,-1.06,0.53,2.46,0
-46.26,-44.43,-179.14,-1.04,0.33,2.35,0
1.10,7.39,-126.77,-0.93,0.10,2.17,0
41.02,48.95,-77.33,-0.81,-0.02,1.84,0
68.97,79.59,-34.36,-0.66,-0.04,1.52,0
88.93,99.37,3.60,-0.53,-0.08,1.25,0
103.09,111.51,38.02,-0.41,-0.10,1.03,0
110.47,118.77,65.98,-0.28,-0.08,0.88,0
112.06,123.05,85.08,-0.17,-0.09,0.81,0
110.11,126.40,94.79,-0.10,-0.09,0.77,0
106.26,131.77,99.00,-0.06,-0.09,0.79,0
103.03,138.37,100.89,-0.02,-0.05,0.81,0
103.09,146.24,104.61,0.03,-0.04,0.77,0
106.20,157.04,109.74,0.12,-0.08,0.68,0
110.29,173.77,116.15,0.20,-0.12,0.59,0
115.30,192.87,124.15,0.31,-0.15,0.50,0
119.75,207.64,133.97,0.42,-0.18,0.40,0
122.07,213.87,142.33,0.53,-0.16,0.30,0
121.95,210.08,147.95,0.67,-0.11,0.16,0
119.32,197.33,148.80,0.78,-0.12,0.04,0
111.45,179.44,144.17,0.82,-0.15,-0.04,0
97.90,164.18,135.68,0.90,-0.15,-0.15,0
85.39,158.51,127.08,1.04,-0.13,-0.26,0
73.79,152.28,114.62,1.16,-0.09,-0.43,0
63.17,141.66,99.55,1.20,-0.06,-0.64,0
48.03,132.08,88.99,1.27,-0.17,-0.75,0
24.66,122.74,80.02,1.27,-0.12,-0.79,0
4.52,116.46,72.88,1.33,-0.08,-0.68,0
-8.67,108.58,69.70,1.31,-0.12,-0.59,0
-15.99,102.66,64.45,1.26,-0.14,-0.49,0
-23.74,99.98,60.18,1.20,-0.10,-0.37,0
-28.63,97.41,61.71,1.14,-0.09,-0.28,0
-31.37,94.18,66.41,1.08,-0.02,-0.22,0
-33.02,89.54,73.67,1.07,0.13,-0.21,0
-32.29,79.41,80.81,1.18,0.25,-0.16,0
-27.95,58.04,81.48,1.24,0.33,-0.14,0
-20.75,29.30,77.09,1.22,0.33,-0.17,0
-19.78,4.46,71.47,1.19,0.30,-0.18,0
-26.79,-11.60,65.19,1.17,0.27,-0.13,0
-36.32,-19.17,58.29,1.17,0.24,-0.03,0
-43.70,-21.18,50.78,1.14,0.27,0.11,0
-46.88,-19.23,46.14,1.11,0.31,0.27,0
-45.10,-15.14,46.08,1.09,0.39,0.41,0
-40.77,-8.24,49.99,1.11,0.52,0.51,0
-34.67,4.46,57.68,1.16,0.68,0.62,0
-23.99,23.74,64.58,1.27,0.90,0.75,0
-6.96,42.54,68.73,1.55,1.25,0.93,0
20.02,44.62,66.10,1.92,1.66,1.11,0
58.53,19.10,51.39,2.20,2.08,1.13,0
95.15,-11.41,27.34,2.37,2.24,0.97,0
103.03,-13.37,-11.66,2.53,2.22,0.81,0
76.60,26.31,-73.61,2.63,2.11,0.84,0
33.69,84.35,-151.43,2.56,2.09,1.01,0
2.69,127.01,-221.37,2.37,2.37,1.21,0
9.70,139.65,-259.28,2.15,2.57,1.36,0
54.69,121.58,-272.40,1.93,2.58,1.29,0
114.69,87.77,-283.51,1.60,2.38,1.01,0
166.81,58.78,-298.40,1.11,1.96,0.62,0
191.41,47.85,-318.24,0.64,1.51,0.25,0
189.45,54.57,-339.36,0.18,1.06,-0.02,0
171.87,69.58,-355.35,-0.28,0.63,-0.24,0
147.09,90.33,-362.79,-0.69,0.34,-0.32,0
127.08,108.76,-360.23,-1.05,-0.08,-0.30,0
121.58,111.57,-353.27,-1.47,-0.56,-0.35,0
127.08,95.89,-339.54,-1.99,-1.14,-0.65,0
128.85,76.97,-306.82,-2.43,-1.80,-1.03,0
111.51,68.66,-254.88,-2.65,-2.47,-1.37,0
88.87,77.27,-197.88,-2.77,-3.01,-1.57,0
75.93,83.92,-138.12,-2.86,-3.26,-1.77,0
56.70,74.46,-67.87,-2.84,-3.34,-1.96,0
34.18,60.67,10.07,-2.72,-3.26,-2.07,0
5.74,51.51,86.00,-2.44,-2.91,-2.07,0
-22.95,47.42,155.52,-2.02,-2.43,-1.92,0
-51.33,37.29,214.11,-1.54,-1.78,-1.66,0
-69.70,19.10,259.03,-0.99,-1.23,-1.34,0
-75.62,-11.60,286.19,-0.51,-0.84,-1.07,0
-73.30,-51.33,295.10,-0.11,-0.58,-0.87,0
-73.30,-91.19,293.33,0.23,-0.41,-0.69,0
-81.91,-119.26,286.80,0.52,-0.16,-0.55,0
-98.21,-125.85,280.21,0.84,0.05,-0.38,0
-118.04,-110.35,268.62,1.12,0.11,-0.23,0
-138.55,-80.14,239.26,1.13,0.20,-0.24,0
-163.02,-37.60,203.80,0.98,0.34,-0.29,0
-191.71,-0.43,176.64,0.82,0.48,-0.24,0
-212.22,23.50,161.44,0.70,0.69,-0.06,0
-209.23,24.72,160.58,0.66,1.03,0.21,0
-178.71,-0.92,177.73,0.71,1.41,0.41,0
-127.01,-43.21,204.22,0.85,1.59,0.48,0
-77.39,-85.51,226.38,0.96,1.75,0.48,0
-43.88,-109.50,237.73,1.16,1.81,0.57,0
-15.75,-111.88,232.67,1.42,1.62,0.68,0
3.97,-107.48,204.90,1.62,1.34,0.71,0
8.91,-100.95,161.32,1.63,1.07,0.66,0
2.44,-90.27,119.81,1.52,0.81,0.62,0
-9.77,-75.07,89.05,1.43,0.57,0.61,0
-22.03,-56.34,69.76,1.28,0.43,0.56,0
-33.87,-34.24,60.97,1.08,0.67,0.45,0
-45.04,-4.88,70.13,1.08,0.95,0.45,0
-41.99,27.40,86.24,1.30,1.03,0.54,0
-24.11,42.97,89.78,1.43,1.01,0.53,0
-6.96,39.12,82.40,1.43,1.04,0.41,0
2.32,29.05,73.49,1.42,1.03,0.34,0
7.69,21.06,66.71,1.43,0.94,0.33,0
11.11,15.50,56.64,1.50,0.94,0.38,0
14.65,7.32,40.65,1.56,1.01,0.44,0
22.22,-5.25,21.61,1.56,1.09,0.42,0
29.97,-13.61,3.97,1.52,1.22,0.36,0
29.11,-9.58,-9.52,1.62,1.43,0.35,0
24.35,7.08,-22.40,1.83,1.54,0.39,0
24.96,26.79,-42.91,2.03,1.53,0.45,0
28.26,39.49,-73.61,2.10,1.53,0.47,0
32.71,45.23,-105.22,2.08,1.47,0.45,0
39.43,45.41,-132.26,1.99,1.30,0.43,0
46.39,41.69,-155.82,1.84,1.22,0.35,0
49.93,37.66,-176.82,1.70,1.19,0.25,0
49.68,37.84,-195.98,1.54,1.11,0.18,0
49.68,41.93,-213.32,1.33,1.02,0.13,0
46.57,49.19,-227.78,1.13,1.00,0.09,0
40.22,58.90,-237.00,1.06,1.04,0.07,0
36.93,61.77,-243.16,1.00,1.00,0.10,0
40.10,53.47,-251.28,0.85,0.94,0.11,0
41.20,45.17,-258.73,0.71,0.79,0.22,0
46.26,42.48,-265.01,0.59,0.67,0.39,0
60.00,37.23,-269.41,0.46,0.58,0.53,0
81.42,26.67,-267.46,0.26,0.62,0.54,0
102.48,23.19,-255.19,0.12,0.51,0.55,0
123.23,35.16,-242.13,0.03,0.31,0.57,0
141.05,58.17,-237.37,-0.09,0.19,0.60,0
155.09,88.38,-235.47,-0.28,0.06,0.66,0
162.78,127.44,-229.98,-0.48,-0.07,0.69,0
166.44,173.22,-218.20,-0.63,-0.14,0.68,0
173.10,212.65,-196.41,-0.71,-0.18,0.68,0
187.99,229.80,-169.07,-0.70,-0.29,0.70,0
216.67,219.60,-141.97,-0.72,-0.42,0.64,0
258.30,190.98,-118.84,-0.83,-0.55,0.43,0
306.27,152.71,-95.09,-0.97,-0.69,0.23,0
357.06,115.66,-66.89,-1.14,-0.73,-0.11,0
400.57,86.73,-30.27,-1.30,-1.05,-0.73,0
433.35,78.31,7.20,-1.64,-1.19,-1.53,0
447.20,90.45,53.71,-1.77,-1.07,-2.47,0
436.77,107.18,118.29,-1.54,-0.95,-3.35,0
407.84,114.38,181.40,-0.87,-0.89,-4.00,0
350.83,95.46,209.59,-0.00,-0.84,-4.00,0
261.78,40.04,178.53,0.56,-0.83,-4.00,0
142.46,-39.37,126.53,0.78,-0.65,-4.00,0
12.39,-124.21,88.50,0.55,-0.26,-4.00,0
-98.82,-200.62,64.94,0.28,0.00,-3.42,0
-180.60,-240.42,58.53,0.05,0.15,-2.71,0
-232.79,-238.10,57.68,-0.05,0.23,-2.06,0
-256.35,-206.79,63.23,0.02,0.35,-1.48,0
-257.75,-173.65,73.43,0.11,0.40,-1.07,0
-238.34,-159.24,82.34,0.20,0.32,-0.89,0
-213.99,-168.70,88.81,0.19,0.28,-0.89,0
-198.91,-193.24,97.17,0.14,0.34,-0.89,0
-195.56,-219.36,111.02,0.18,0.46,-0.83,0
-200.44,-241.15,123.41,0.33,0.52,-0.66,0
-206.24,-262.57,124.57,0.49,0.55,-0.46,0
-209.90,-288.82,113.34,0.55,0.63,-0.24,0
-210.51,-318.24,98.33,0.48,0.77,-0.02,0
-209.96,-337.89,87.59,0.31,0.77,0.20,0
-214.05,-323.43,79.90,0.16,0.69,0.37,0
-226.14,-269.96,72.20,0.09,0.62,0.58,0
-242.25,-199.10,67.26,0.09,0.66,0.74,0
-269.78,-130.74,68.66,0.22,0.74,1.02,0
-293.76,-70.92,68.79,0.47,0.80,1.42,0
-295.29,-33.75,64.88,0.67,0.90,1.81,0
-275.02,-24.48,61.46,0.81,0.96,2.07,0
-239.62,-31.62,60.06,0.92,0.93,2.20,0
-195.50,-40.95,57.86,1.00,0.94,2.21,0
-149.96,-43.95,55.60,1.05,1.04,2.11,0
-103.94,-35.16,57.62,1.10,1.16,1.93,0
-58.29,-12.70,64.64,1.21,1.25,1.73,0
-15.69,19.17,73.49,1.39,1.27,1.51,0
20.94,53.10,77.64,1.58,1.17,1.26,0
48.28,81.05,71.17,1.76,1.04,1.00,0
64.15,98.75,51.21,1.83,1.01,0.73,0
67.14,107.24,24.60,1.87,1.04,0.52,0
63.78,108.09,-3.05,1.92,1.16,0.37,0
62.99,100.89,-28.81,1.96,1.25,0.27,0
64.09,85.51,-52.98,1.95,1.40,0.19,0
62.07,71.04,-72.51,1.96,1.43,0.18,0
65.49,66.77,-91.43,1.94,1.23,0.27,0
72.94,68.30,-117.13,1.80,1.08,0.30,0
81.18,72.08,-143.43,1.60,0.94,0.29,0
93.69,77.76,-163.21,1.38,0.75,0.23,0
104.25,81.36,-177.12,1.16,0.59,0.19,0
114.14,80.69,-187.26,0.97,0.48,0.05,0
128.66,80.32,-191.65,0.80,0.32,-0.08,0
143.80,76.72,-192.57,0.62,0.14,-0.26,0
154.85,71.72,-193.18,0.46,0.01,-0.41,0
160.52,67.08,-189.94,0.31,-0.16,-0.54,0
160.83,63.05,-185.24,0.17,-0.37,-0.66,0
153.69,60.06,-181.64,0.01,-0.50,-0.84,0
142.46,62.01,-174.68,-0.13,-0.63,-1.00,0
129.70,69.58,-163.33,-0.24,-0.77,-1.12,0
113.16,77.15,-146.91,-0.36,-0.89,-1.29,0
93.51,82.89,-123.05,-0.41,-1.08,-1.44,0
68.60,83.62,-94.85,-0.40,-1.19,-1.47,0
42.60,70.74,-63.78,-0.37,-1.20,-1.40,0
28.08,40.95,-29.05,-0.35,-1.23,-1.38,0
23.19,4.82,7.63,-0.34,-1.30,-1.43,0
15.32,-27.53,45.23,-0.29,-1.31,-1.41,0
0.06,-57.43,80.38,-0.25,-1.30,-1.41,0
-18.92,-78.37,107.85,-0.20,-1.26,-1.36,0
-39.55,-86.12,125.67,-0.13,-1.17,-1.27,0
-59.02,-88.50,136.78,-0.08,-1.05,-1.19,0
-78.49,-89.29,146.85,-0.04,-0.94,-1.13,0
-100.65,-89.90,156.74,-0.00,-0.83,-1.04,0
-125.43,-95.83,165.41,0.04,-0.66,-0.92,0
-147.16,-109.25,172.67,0.06,-0.50,-0.77,0
-162.60,-127.56,178.47,0.02,-0.37,-0.62,0
-175.11,-145.81,182.37,-0.09,-0.20,-0.50,0
-185.06,-155.46,189.09,-0.24,0.02,-0.45,0
-196.78,-145.94,205.26,-0.34,0.33,-0.40,0
-214.84,-116.27,235.17,-0.25,0.80,-0.11,0
-228.70,-84.35,274.41,0.07,1.19,0.32,0
-216.80,-67.38,306.70,0.52,1.64,0.79,0
-175.96,-80.51,328.00,1.05,1.86,1.20,0
-109.86,-119.32,322.33,1.61,1.85,1.48,0
-38.27,-168.82,279.24,1.91,1.72,1.52,0
14.53,-203.31,211.67,1.82,1.38,1.40,0
32.35,-203.25,142.76,1.46,1.08,1.06,0
2.01,-161.80,92.71,1.20,0.89,0.81,0
-53.65,-75.87,62.99,1.11,0.79,0.82,0
-96.31,-1.10,40.95,2.19,1.10,3.96,0
-61.04,-98.82,14.65,1.26,1.80,1.33,0
-8.48,-19.84,-8.61,1.02,1.78,0.52,0
-5.92,186.22,-9.09,1.22,1.23,0.35,0
-37.84,275.63,3.91,1.14,0.91,0.37,0
-52.55,242.43,28.08,1.36,0.88,0.68,0
-18.74,121.09,49.01,1.52,0.92,0.67,0
41.75,-4.27,49.01,1.43,0.89,0.34,0
85.57,-68.12,36.19,1.28,0.82,0.12,0
102.11,-79.41,22.34,1.09,0.74,-0.12,0
93.20,-54.50,14.16,1.00,0.73,-0.26,0
62.38,-11.41,10.31,1.10,0.80,-0.20,0
31.98,26.25,3.42,1.27,0.87,-0.04,0
15.32,47.42,-9.52,1.39,0.91,0.12,0
9.52,51.70,-26.98,1.48,0.98,0.21,0
11.23,47.30,-44.62,1.51,1.04,0.25,0
19.59,42.54,-59.14,1.53,1.07,0.27,0
30.58,38.15,-70.80,1.53,1.00,0.27,0
43.15,34.55,-81.97,1.49,0.89,0.22,0
52.86,32.35,-93.14,1.39,0.80,0.13,0
56.70,32.71,-101.01,1.26,0.74,0.02,0
55.36,37.41,-103.70,1.16,0.73,-0.06,0
48.83,45.41,-102.84,1.13,0.77,-0.10,0
41.32,53.53,-101.99,1.17,0.72,-0.07,0
36.93,56.40,-108.09,1.17,0.64,-0.03,0
33.69,53.65,-120.42,1.07,0.59,-0.04,0
29.36,53.59,-131.29,0.96,0.50,-0.03,0
24.90,57.43,-139.04,0.88,0.38,-0.00,0
21.79,59.81,-145.63,0.80,0.28,0.01,0
20.26,59.14,-149.17,0.69,0.18,0.02,0
21.42,58.17,-149.17,0.59,0.08,-0.00,0
24.96,57.25,-145.08,0.50,-0.02,-0.03,0
29.66,55.42,-137.57,0.44,-0.12,-0.07,0
34.12,53.28,-128.60,0.37,-0.24,-0.15,0
34.67,52.86,-116.88,0.31,-0.39,-0.21,0
28.44,53.04,-101.50,0.27,-0.48,-0.24,0
20.51,51.88,-84.96,0.25,-0.53,-0.25,0
15.75,49.13,-69.09,0.25,-0.60,-0.27,0
13.85,46.08,-55.48,0.25,-0.68,-0.29,0
13.31,42.24,-45.04,0.25,-0.75,-0.31,0
13.73,36.87,-36.38,0.23,-0.80,-0.32,0
13.18,29.66,-26.18,0.19,-0.86,-0.32,0
13.85,19.35,-13.55,0.14,-0.93,-0.32,0
14.53,9.34,1.16,0.09,-1.02,-0.32,0
12.33,0.49,18.13,-0.02,-1.10,-0.36,0
8.85,-3.85,37.48,-0.14,-1.20,-0.44,0
0.92,-2.99,58.90,-0.22,-1.27,-0.51,0
-10.56,0.37,82.64,-0.27,-1.26,-0.56,0
-24.05,3.05,107.67,-0.31,-1.22,-0.59,0
-38.21,4.64,132.87,-0.29,-1.15,-0.53,0
-50.29,1.04,154.91,-0.26,-1.02,-0.43,0
-58.35,-5.80,173.28,-0.25,-0.83,-0.31,0
-60.18,-11.84,190.73,-0.22,-0.65,-0.16,0
-55.05,-20.94,207.82,-0.22,-0.50,-0.05,0
-48.58,-31.43,223.57,-0.27,-0.29,0.02,0
-45.23,-38.64,241.88,-0.34,0.09,0.09,0
-41.32,-38.64,267.94,-0.31,0.51,0.17,0
-32.90,-30.33,299.32,-0.15,0.93,0.29,0
-20.75,-14.95,324.58,0.16,1.42,0.39,0
-5.31,4.21,335.02,0.65,1.82,0.44,0
18.01,21.97,323.18,1.31,1.96,0.42,0
51.09,14.95,280.15,1.65,1.83,0.33,0
51.33,-10.68,213.32,1.72,1.54,0.23,0
33.33,-36.32,156.56,1.48,1.33,-0.03,0
7.20,-46.20,124.63,1.20,1.14,-0.29,0
-17.58,-27.22,111.94,1.17,1.12,-0.29,0
-35.95,-2.75,103.15,1.32,1.14,-0.15,0
-47.42,5.07,98.94,1.33,1.14,-0.03,0
-40.71,-6.35,91.98,1.28,1.45,0.05,0
-11.60,-33.39,91.55,1.32,1.75,0.14,0
24.96,-69.21,99.06,1.39,1.92,0.14,0
53.28,-99.18,101.62,1.48,1.88,0.05,0
64.03,-107.85,90.52,1.59,1.71,0.03,0
55.36,-98.75,62.50,1.60,1.59,0.05,0
36.74,-80.14,27.04,1.55,1.50,0.07,0
18.80,-58.53,-3.23,1.46,1.42,0.09,0
4.39,-39.79,-24.41,1.34,1.34,0.08,0
-7.93,-21.73,-36.74,1.26,1.32,0.04,0
-25.63,-5.19,-42.11,1.17,1.26,0.18,0
-49.32,37.23,-24.48,-0.13,0.79,1.20,0
-48.46,103.70,13.61,0.35,1.39,1.13,0
-2.69,91.43,19.90,1.94,1.59,0.04,0
3.66,78.06,-28.63,2.22,1.28,-0.31,0
-58.65,89.17,-103.88,1.70,1.55,-0.08,0
-106.32,88.75,-154.05,1.08,1.71,1.06,0
-37.17,101.81,-163.27,0.14,1.87,2.48,0
75.56,-9.16,-75.44,1.47,1.80,-0.18,0
114.20,13.06,-53.59,1.37,0.49,-0.77,0
49.50,167.97,-133.79,1.25,0.46,-0.10,0
-56.82,194.46,-190.73,1.28,1.09,-0.21,0
-101.44,187.87,-205.51,1.11,1.35,-0.20,0
-99.00,162.78,-196.78,1.18,1.43,-0.29,0
-97.35,130.37,-189.27,1.32,1.17,-0.36,0
-108.28,96.01,-201.42,1.36,1.14,-0.61,0
-112.43,78.61,-230.29,1.26,1.08,-0.62,0
-118.16,67.81,-257.39,1.11,0.98,-0.60,0
-126.16,54.26,-274.54,0.92,0.88,-0.53,0
-124.76,39.18,-281.19,0.73,0.97,-0.42,0
-103.15,20.94,-277.89,0.69,0.78,-0.28,0
-88.62,-2.38,-267.33,0.56,0.76,-0.34,0
-83.62,-16.85,-255.37,0.45,0.83,-0.50,0
-73.97,-8.61,-242.31,0.47,0.81,-0.49,0
-63.48,8.30,-235.90,0.56,0.63,-0.38,0
-63.84,13.37,-240.36,0.58,0.48,-0.37,0
-77.94,8.24,-252.62,0.55,0.42,-0.38,0
-89.36,3.23,-268.01,0.54,0.40,-0.31,0
-89.84,-5.68,-280.70,0.46,0.37,-0.25,0
-87.40,-17.82,-285.64,0.35,0.31,-0.20,0
-85.08,-31.01,-283.45,0.27,0.19,-0.10,0
-76.97,-47.06,-278.20,0.20,0.13,0.01,0
-57.56,-65.31,-267.70,0.11,0.13,0.06,0
-32.29,-81.18,-248.66,0.08,0.04,0.13,0
-6.23,-93.87,-227.29,0.05,-0.02,0.15,0
25.63,-97.90,-205.20,0.04,-0.16,0.20,0
56.88,-99.73,-184.45,0.06,-0.30,0.20,0
80.81,-104.19,-167.66,0.12,-0.37,0.15,0
99.67,-112.18,-156.43,0.18,-0.45,0.10,0
118.41,-123.29,-149.35,0.15,-0.55,0.04,0
135.25,-132.63,-144.23,0.07,-0.70,-0.13,0
141.30,-129.82,-137.76,-0.06,-0.92,-0.33,0
131.10,-110.72,-129.82,-0.16,-1.17,-0.50,0
102.48,-78.19,-123.41,-0.22,-1.35,-0.57,0
60.67,-39.37,-120.36,-0.23,-1.45,-0.56,0
21.12,-1.89,-120.30,-0.24,-1.54,-0.47,0
-8.73,26.55,-121.83,-0.27,-1.58,-0.35,0
-26.43,40.22,-119.57,-0.37,-1.55,-0.26,0
-30.88,40.22,-105.53,-0.48,-1.53,-0.20,0
-24.78,30.15,-78.37,-0.54,-1.57,-0.18,0
-14.22,14.77,-44.68,-0.54,-1.57,-0.17,0
-1.95,-2.20,-11.60,-0.51,-1.51,-0.18,0
11.60,-15.81,18.86,-0.44,-1.44,-0.18,0
23.56,-24.60,46.88,-0.36,-1.35,-0.20,0
31.13,-29.24,74.04,-0.26,-1.29,-0.22,0
32.23,-28.93,97.23,-0.13,-1.22,-0.22,0
28.14,-24.35,113.16,0.01,-1.14,-0.21,0
21.73,-17.88,121.15,0.14,-1.07,-0.20,0
14.04,-10.44,122.80,0.23,-1.02,-0.20,0
5.80,-2.93,120.42,0.28,-0.96,-0.20,0
-2.44,3.42,117.92,0.31,-0.90,-0.21,0
-10.31,8.06,116.52,0.34,-0.84,-0.21,0
-17.70,11.84,116.88,0.37,-0.73,-0.21,0
-23.13,15.26,120.12,0.43,-0.64,-0.18,0
-25.02,16.91,124.39,0.50,-0.55,-0.15,0
-23.62,14.95,129.58,0.57,-0.48,-0.14,0
-20.39,9.58,133.67,0.63,-0.40,-0.13,0
-15.08,2.69,135.99,0.69,-0.33,-0.12,0
-8.24,-5.74,136.54,0.75,-0.33,-0.10,0
-0.06,-17.70,133.67,0.75,-0.23,-0.15,0
8.30,-27.47,133.97,0.74,-0.20,-0.18,0
11.60,-34.30,137.21,0.76,-0.21,-0.19,0
10.99,-40.22,138.31,0.80,-0.17,-0.18,0
11.96,-45.23,137.15,0.86,-0.08,-0.18,0
12.33,-49.19,136.60,0.93,-0.02,-0.17,0
9.89,-52.55,134.70,0.98,-0.02,-0.15,0
6.65,-55.42,130.25,0.98,-0.03,-0.12,0
3.17,-56.09,125.31,0.96,-0.02,-0.12,0
-1.95,-50.72,121.89,0.95,-0.03,-0.10,0
-7.69,-40.41,119.69,0.94,-0.07,-0.06,0
-12.82,-29.60,117.00,0.91,-0.05,-0.03,0
-17.64,-20.14,116.39,0.86,-0.01,-0.02,0
-21.79,-10.07,120.36,0.83,-0.02,-0.01,0
-24.54,1.83,125.00,0.82,-0.03,-0.00,0
-27.04,13.31,127.93,0.83,0.04,-0.03,0
-29.66,23.38,131.10,0.88,0.12,-0.05,0
-33.39,30.94,134.28,0.98,0.15,-0.01,0
-35.46,29.97,132.14,1.08,0.22,0.04,0
-30.09,18.55,125.12,1.15,0.26,0.09,0
-18.31,0.12,116.76,1.17,0.23,0.13,0
-5.49,-22.83,108.70,1.16,0.20,0.13,0
5.74,-45.59,102.54,1.09,0.22,0.09,0
13.43,-61.77,100.46,1.04,0.19,0.05,0
16.91,-69.21,98.75,1.00,0.16,0.01,0
16.78,-66.65,97.72,0.96,0.18,-0.06,0
10.07,-55.24,97.66,0.96,0.24,-0.13,0
-2.81,-34.55,97.05,1.02,0.25,-0.15,0
-17.94,-12.76,91.74,1.09,0.27,-0.15,0
-32.29,3.54,83.74,1.12,0.27,-0.11,0
-42.48,14.59,75.74,1.11,0.26,-0.08,0
-47.67,20.63,68.66,1.09,0.25,-0.05,0
-48.83,22.83,63.42,1.10,0.22,-0.04,0
-47.12,20.39,58.04,1.07,0.21,-0.05,0
-44.07,13.85,52.49,1.01,0.20,-0.05,0
-38.82,6.29,49.74,0.94,0.17,-0.05,0
-33.14,-1.34,50.05,0.86,0.16,-0.07,0
-28.44,-7.20,53.47,0.79,0.15,-0.08,0
-23.01,-11.35,59.63,0.73,0.17,-0.05,0
-16.60,-14.71,68.42,0.67,0.20,-0.03,0
-8.91,-17.03,80.75,0.64,0.28,-0.00,0
-1.59,-18.74,95.52,0.67,0.39,0.00,0
2.69,-17.03,109.74,0.74,0.46,0.01,0
6.53,-8.12,120.12,0.80,0.46,0.03,0
8.79,4.76,123.41,0.86,0.47,0.06,0
8.42,18.92,121.46,0.90,0.48,0.08,0
7.57,32.04,117.43,0.94,0.47,0.09,0
6.59,41.63,111.88,0.97,0.48,0.07,0
6.84,46.63,106.51,1.00,0.50,0.05,0
9.95,44.49,102.05,1.03,0.51,0.04,0
13.12,33.87,97.96,1.11,0.65,0.02,0
15.20,15.63,93.20,1.22,0.87,-0.01,0
18.62,-4.39,89.23,1.34,1.03,-0.09,0
23.80,-16.36,84.47,1.46,1.04,-0.15,0
24.60,-20.39,73.30,1.57,0.93,-0.16,0
15.01,-21.73,52.43,1.60,0.87,-0.14,0
0.55,-21.85,28.69,1.55,0.85,-0.11,0
-11.17,-18.68,10.01,1.49,0.89,-0.07,0
-20.26,-11.90,-1.95,1.48,0.96,-0.01,0
-23.07,-2.81,-8.06,1.50,1.02,0.04,0
-20.45,6.04,-14.47,1.55,1.10,0.04,0
-17.76,14.04,-23.62,1.63,1.11,0.07,0
-12.51,18.07,-37.41,1.68,1.06,0.09,0
-6.16,15.26,-57.19,1.64,0.97,0.08,0
-2.69,7.20,-78.43,1.50,0.90,0.03,0
-2.14,-0.85,-94.36,1.37,0.81,-0.00,0
-2.56,-4.88,-105.16,1.24,0.72,-0.01,0
-2.87,-6.04,-112.98,1.12,0.63,-0.01,0
-3.23,-5.31,-118.23,1.01,0.55,-0.01,0
-2.99,-4.27,-121.22,0.89,0.47,-0.01,0
-2.56,-3.72,-121.70,0.78,0.41,-0.00,0
-1.10,-3.17,-118.47,0.69,0.32,0.00,0
-0.12,-2.69,-112.98,0.61,0.24,-0.00,0
-0.79,-2.01,-106.38,0.55,0.16,-0.02,0
-3.30,-0.31,-100.04,0.51,0.08,-0.01,0
-5.98,1.89,-94.36,0.47,0.03,0.00,0
-6.96,4.33,-88.13,0.45,-0.01,0.02,0
-7.39,6.90,-80.38,0.46,-0.03,0.05,0
-7.14,7.26,-71.47,0.48,-0.08,0.06,0
-3.85,6.35,-65.49,0.50,-0.12,0.05,0
-0.98,4.15,-61.65,0.50,-0.17,0.03,0
1.10,1.28,-58.96,0.49,-0.22,0.01,0
3.72,-1.28,-55.97,0.45,-0.29,0.00,0
7.14,-3.05,-53.89,0.36,-0.39,-0.01,0
10.62,-2.50,-52.49,0.21,-0.51,-0.03,0
14.34,2.93,-48.16,0.03,-0.64,-0.08,0
17.27,14.47,-37.17,-0.14,-0.77,-0.18,0
18.31,30.46,-17.70,-0.33,-0.90,-0.29,0
15.14,45.17,7.14,-0.54,-1.02,-0.40,0
4.33,54.20,37.96,-0.71,-1.03,-0.49,0
-11.35,56.40,76.90,-0.75,-0.87,-0.52,0
-26.49,50.48,120.79,-0.70,-0.74,-0.51,0
-40.83,41.93,160.10,-0.57,-0.54,-0.41,0
-50.66,37.11,191.47,-0.44,-0.17,-0.29,0
-49.38,30.64,221.13,-0.20,0.23,-0.17,0
-42.05,15.26,248.35,0.09,0.69,-0.16,0
-39.06,-3.17,268.68,0.55,1.35,-0.13,0
-34.30,-10.13,282.17,0.98,1.68,0.18,0
-19.17,71.11,247.80,2.67,1.29,0.15,0
-124.45,312.32,78.86,2.34,3.05,0.55,0
-123.23,348.27,-17.52,1.71,2.22,0.40,0
16.54,163.70,31.07,2.15,1.46,0.10,0
97.66,-66.77,91.43,1.79,1.17,-0.49,0
127.01,-150.51,116.21,1.85,0.73,-0.74,0
111.33,-138.67,116.76,2.00,0.54,-0.96,0
75.74,-65.06,90.27,2.02,0.52,-0.90,0
29.30,5.43,44.37,2.03,0.61,-0.73,0
-20.63,36.07,6.53,1.95,0.77,-0.58,0
-48.46,38.33,-18.01,1.81,0.94,-0.46,0
-49.44,26.49,-26.06,1.65,1.02,-0.37,0
-39.31,8.54,-25.33,1.55,1.03,-0.33,0
-27.16,-9.28,-25.63,1.45,1.00,-0.33,0
-17.15,-21.36,-31.07,1.31,0.91,-0.32,0
-13.37,-25.94,-40.95,1.19,0.88,-0.29,0
-13.18,-25.33,-50.48,1.11,0.88,-0.23,0
-8.67,-24.96,-55.30,1.07,0.85,-0.19,0
-0.43,-28.50,-56.40,1.03,0.81,-0.18,0
6.59,-33.75,-55.11,1.01,0.83,-0.19,0
7.75,-34.73,-52.12,1.06,0.85,-0.17,0
7.63,-30.88,-51.03,1.13,0.86,-0.12,0
10.01,-26.49,-55.24,1.20,0.86,-0.09,0
10.56,-22.52,-65.49,1.25,0.87,-0.06,0
8.18,-18.37,-78.92,1.29,0.92,-0.03,0
10.38,-13.49,-89.84,1.34,0.98,0.03,0
18.86,-11.90,-96.86,1.39,0.95,0.06,0
31.62,-15.26,-104.61,1.39,0.83,0.07,0
42.97,-22.64,-115.30,1.31,0.73,0.02,0
50.17,-26.49,-125.61,1.20,0.66,-0.06,0
52.12,-23.19,-132.08,1.11,0.57,-0.12,0
47.67,-18.43,-137.70,1.09,0.46,-0.19,0
27.53,-12.45,-142.52,0.95,0.46,-0.27,0
14.65,-7.51,-149.41,0.93,0.46,-0.25,0
10.74,-4.21,-154.42,0.87,0.52,-0.13,0
23.07,-8.48,-159.18,0.87,0.38,0.00,0
27.65,-25.15,-160.83,0.77,0.29,-0.06,0
19.96,-42.18,-159.67,0.62,0.22,-0.18,0
22.89,-45.65,-156.01,0.52,0.21,-0.19,0
31.98,-39.61,-149.72,0.47,0.10,-0.14,0
32.47,-34.91,-141.30,0.44,-0.01,-0.15,0
25.51,-33.08,-134.40,0.41,-0.01,-0.20,0
23.01,-28.63,-127.62,0.42,-0.04,-0.21,0
20.75,-23.07,-120.97,0.46,-0.10,-0.19,0
14.04,-19.10,-117.00,0.47,-0.16,-0.19,0
7.02,-15.08,-115.54,0.45,-0.21,-0.18,0
0.67,-8.73,-114.38,0.45,-0.25,-0.18,0
-6.53,0.31,-112.06,0.46,-0.30,-0.16,0
-12.15,8.97,-108.09,0.48,-0.33,-0.12,0
-13.43,14.16,-102.84,0.50,-0.35,-0.07,0
-9.40,15.01,-96.19,0.50,-0.38,-0.02,0
-1.40,10.86,-87.28,0.48,-0.37,-0.03,0
8.48,5.49,-74.22,0.49,-0.40,-0.04,0
18.80,1.46,-58.53,0.51,-0.44,-0.05,0
27.83,-2.38,-44.25,0.54,-0.47,-0.07,0
34.61,-5.80,-32.53,0.56,-0.49,-0.09,0
38.94,-7.75,-22.34,0.58,-0.50,-0.12,0
39.43,-8.54,-13.31,0.63,-0.47,-0.16,0
37.17,-7.57,-5.13,0.69,-0.43,-0.17,0
34.73,-6.41,0.79,0.77,-0.43,-0.16,0
32.23,-6.77,2.93,0.82,-0.44,-0.15,0
28.69,-7.87,1.22,0.84,-0.43,-0.14,0
24.23,-8.36,-1.89,0.83,-0.43,-0.13,0
19.29,-8.18,-4.21,0.81,-0.43,-0.12,0
14.10,-5.92,-5.49,0.78,-0.43,-0.11,0
9.77,-1.77,-5.80,0.76,-0.45,-0.09,0
5.49,0.73,-6.04,0.73,-0.45,-0.08,0
1.59,1.77,-5.25,0.70,-0.45,-0.08,0
-0.79,2.56,-2.08,0.68,-0.44,-0.09,0
-2.38,3.66,2.99,0.69,-0.43,-0.09,0
-3.48,5.19,8.30,0.71,-0.40,-0.10,0
-4.09,5.62,12.88,0.77,-0.38,-0.09,0
-4.09,3.23,15.87,0.82,-0.36,-0.09,0
-4.03,-1.89,16.97,0.84,-0.35,-0.10,0
-4.09,-7.39,17.15,0.85,-0.33,-0.10,0
-4.76,-10.99,18.13,0.86,-0.30,-0.10,0
-5.62,-12.02,20.51,0.86,-0.27,-0.09,0
-5.62,-10.31,23.62,0.88,-0.25,-0.08,0
-6.41,-7.32,26.67,0.91,-0.23,-0.07,0
-7.20,-2.62,28.87,0.93,-0.22,-0.05,0
-6.77,1.83,30.15,0.96,-0.20,-0.03,0
-4.58,3.36,30.82,0.99,-0.18,-0.01,0
-1.28,0.61,31.31,1.01,-0.14,-0.01,0
2.32,-4.88,32.04,1.05,-0.09,-0.02,0
6.04,-10.31,31.68,1.11,-0.03,-0.03,0
8.12,-15.69,28.93,1.20,0.02,-0.07,0
6.29,-18.92,23.01,1.27,0.04,-0.08,0
0.61,-18.62,14.53,1.31,0.07,-0.08,0
-7.14,-14.53,6.16,1.37,0.20,-0.07,0
-13.92,-7.75,-0.49,1.51,0.31,-0.04,0
-16.72,-0.67,-7.93,1.65,0.45,0.02,0
-15.99,3.91,-17.03,1.88,0.76,0.04,0
-13.37,4.33,-26.79,2.22,1.05,0.10,0
-5.25,-4.39,-42.18,2.64,1.33,0.12,0
3.72,-23.25,-71.84,2.87,1.40,0.12,0
3.60,-36.62,-116.03,2.81,1.28,0.09,0
-5.13,-25.39,-165.77,2.57,1.11,0.16,0
-10.80,0.98,-211.12,2.25,0.84,0.30,0
-7.26,18.80,-246.95,1.86,0.65,0.40,0
4.15,21.00,-269.10,1.45,0.64,0.45,0
30.15,8.61,-271.18,1.05,0.63,0.42,0
62.07,-13.49,-255.13,0.73,0.58,0.33,0
90.09,-37.29,-233.34,0.46,0.38,0.18,0
111.57,-51.70,-218.93,0.18,0.13,-0.00,0
117.19,-52.86,-212.34,-0.14,-0.11,-0.16,0
105.90,-41.14,-209.17,-0.41,-0.31,-0.27,0
86.24,-19.41,-203.25,-0.64,-0.56,-0.31,0
66.71,4.64,-196.84,-0.83,-0.88,-0.32,0
49.68,24.48,-189.15,-1.00,-1.27,-0.34,0
36.68,34.97,-178.89,-1.13,-1.57,-0.35,0
30.03,34.91,-159.55,-1.23,-1.79,-0.31,0
31.25,22.28,-129.58,-1.30,-2.01,-0.30,0
37.84,3.78,-94.30,-1.38,-2.19,-0.36,0
42.11,-8.67,-55.91,-1.46,-2.33,-0.50,0
36.93,-8.24,-14.59,-1.46,-2.41,-0.65,0
22.71,5.98,26.49,-1.37,-2.37,-0.74,0
4.94,26.31,64.33,-1.24,-2.20,-0.73,0
-9.58,38.15,96.80,-1.07,-1.97,-0.68,0
-21.55,36.13,126.59,-0.91,-1.72,-0.60,0
-31.13,24.90,151.98,-0.76,-1.47,-0.48,0
-36.80,9.58,172.49,-0.63,-1.24,-0.40,0
-40.16,-3.85,189.27,-0.56,-1.06,-0.36,0
-43.40,-9.64,201.23,-0.50,-0.89,-0.35,0
-49.93,-7.75,209.53,-0.41,-0.73,-0.37,0
-60.24,-0.49,215.21,-0.29,-0.47,-0.38,0
-70.68,11.41,221.44,-0.09,-0.18,-0.38,0
-77.82,24.41,229.68,0.16,0.02,-0.32,0
-82.58,30.82,234.50,0.45,0.31,-0.28,0
-83.56,33.51,238.04,0.75,0.47,-0.22,0
-80.14,28.56,232.24,0.98,0.60,-0.20,0
-70.92,22.09,220.28,1.13,0.59,-0.18,0
-62.50,11.41,201.23,1.20,0.51,-0.16,0
-59.88,-0.98,180.30,1.13,0.40,-0.20,0
-65.92,-4.27,161.68,1.08,0.37,-0.17,0
-73.97,-1.83,147.95,1.09,0.44,-0.12,0
-76.54,0.00,141.91,1.08,0.53,-0.06,0
-70.50,0.67,145.57,1.19,0.82,-0.00,0
-56.27,-1.40,162.54,1.36,0.94,0.06,0
-34.61,-5.92,179.87,1.57,0.93,0.13,0
-10.80,-14.34,182.86,1.69,0.89,0.10,0
7.81,-23.25,172.97,1.70,0.81,0.02,0
17.82,-26.98,161.93,1.63,0.67,-0.07,0
14.77,-21.67,150.27,1.62,0.48,-0.20,0
-5.37,-5.13,130.37,1.58,0.34,-0.26,0
-33.45,21.67,102.11,1.50,0.28,-0.23,0
-57.80,49.50,75.07,1.38,0.24,-0.14,0
-71.72,68.42,56.70,1.25,0.26,-0.07,0
-73.30,75.68,49.44,1.12,0.26,0.01,0
-63.17,68.79,52.06,1.00,0.30,0.07,0
-45.29,49.56,64.33,0.92,0.40,0.08,0
-23.56,27.34,85.33,0.92,0.50,0.09,0
-2.93,8.85,106.87,0.97,0.57,0.08,0
16.85,-1.83,123.60,1.02,0.52,0.04,0
28.20,-3.78,128.97,1.09,0.45,-0.01,0
27.59,4.15,122.25,1.13,0.39,-0.05,0
21.79,18.68,107.36,1.15,0.32,-0.05,0
13.43,30.88,88.01,1.18,0.27,-0.06,0
3.30,35.03,66.47,1.20,0.27,-0.07,0
-3.23,30.03,45.90,1.17,0.29,-0.09,0
-7.02,19.53,31.07,1.11,0.31,-0.11,0
-9.58,7.69,25.45,1.03,0.41,-0.15,0
-10.62,-0.37,31.37,1.03,0.50,-0.17,0
-8.42,-3.36,44.56,1.12,0.52,-0.13,0
-4.64,-6.04,53.53,1.25,0.50,-0.09,0
-0.55,-8.54,52.55,1.29,0.49,-0.07,0
1.83,-10.25,45.78,1.33,0.48,-0.06,0
2.26,-9.34,36.25,1.37,0.49,-0.06,0
3.11,-8.36,24.48,1.41,0.52,-0.05,0
3.72,-9.58,12.21,1.40,0.53,-0.06,0
4.46,-10.99,2.87,1.36,0.53,-0.07,0
4.88,-10.25,-3.05,1.32,0.53,-0.08,0
4.94,-7.39,-5.86,1.31,0.54,-0.09,0
4.88,-3.60,-8.36,1.32,0.55,-0.08,0
6.04,-1.22,-11.72,1.32,0.58,-0.05,0
8.00,-0.98,-14.95,1.31,0.61,-0.02,0
12.39,-2.14,-16.42,1.29,0.66,-0.02,0
18.19,-3.78,-14.71,1.31,0.64,0.01,0
24.66,-6.65,-14.77,1.33,0.58,0.02,0
30.27,-10.44,-20.45,1.31,0.53,-0.02,0
32.90,-11.47,-29.48,1.26,0.46,-0.05,0
30.58,-8.67,-40.16,1.19,0.41,-0.07,0
25.82,-3.30,-49.74,1.11,0.40,-0.08,0
22.03,2.62,-55.66,1.05,0.36,-0.06,0
21.12,5.49,-58.78,1.00,0.32,-0.05,0
21.85,4.70,-59.69,0.97,0.28,-0.02,0
21.97,-0.24,-58.84,0.90,0.27,-0.06,0
24.96,-4.39,-56.76,0.86,0.21,-0.06,0
27.34,-8.12,-54.32,0.82,0.16,-0.07,0
27.59,-9.64,-52.61,0.76,0.11,-0.09,0
26.00,-8.67,-50.17,0.73,0.05,-0.11,0
21.73,-5.68,-48.52,0.72,-0.01,-0.12,0
15.63,-2.20,-48.95,0.73,-0.02,-0.12,0
9.70,-0.85,-50.66,0.72,-0.04,-0.10,0
6.29,-2.20,-51.45,0.70,-0.05,-0.08,0
5.43,-5.07,-50.17,0.67,-0.07,-0.06,0
5.86,-7.93,-46.88,0.66,-0.09,-0.04,0
7.75,-10.50,-42.72,0.64,-0.11,-0.03,0
10.93,-13.18,-38.09,0.62,-0.11,-0.04,0
14.47,-14.59,-31.25,0.62,-0.11,-0.05,0
18.49,-15.20,-22.95,0.62,-0.11,-0.06,0
22.22,-14.53,-14.10,0.64,-0.09,-0.10,0
23.80,-11.60,-5.86,0.70,-0.07,-0.12,0
22.95,-7.26,-0.31,0.78,-0.06,-0.13,0
20.63,-3.72,0.92,0.86,-0.04,-0.13,0
16.91,-3.05,-1.40,0.92,-0.02,-0.13,0
12.02,-4.70,-4.94,0.94,-0.01,-0.13,0
7.20,-6.41,-7.32,0.95,-0.01,-0.13,0
2.38,-6.71,-9.40,0.95,-0.00,-0.12,0
-1.22,-5.31,-10.74,0.94,0.01,-0.10,0
-2.20,-3.17,-11.23,0.93,0.04,-0.09,0
-0.79,-0.55,-8.91,0.92,0.06,-0.08,0
0.49,1.95,-4.21,0.95,0.10,-0.07,0
1.77,3.91,1.34,0.99,0.11,-0.06,0
3.42,4.82,5.19,1.03,0.13,-0.06,0
4.82,4.76,5.68,1.06,0.13,-0.05,0
5.92,4.21,3.48,1.07,0.12,-0.05,0
6.84,2.93,-0.18,1.07,0.12,-0.04,0
7.69,1.28,-4.21,1.06,0.12,-0.04,0
9.03,-0.67,-7.39,1.04,0.11,-0.04,0
10.13,-2.32,-9.95,1.02,0.09,-0.05,0
10.93,-2.69,-12.21,1.00,0.06,-0.05,0
10.68,-2.44,-14.28,0.96,0.04,-0.06,0
10.01,-0.55,-15.08,0.94,0.03,-0.06,0
9.52,2.14,-14.95,0.93,0.02,-0.06,0
9.40,3.78,-14.47,0.92,0.02,-0.06,0
8.91,4.76,-12.88,0.91,0.01,-0.06,0
7.81,5.19,-11.23,0.89,-0.01,-0.07,0
6.29,5.55,-10.38,0.89,-0.02,-0.07,0
4.39,5.80,-9.52,0.86,-0.05,-0.08,0
2.62,5.19,-11.23,0.81,-0.18,-0.06,0
2.69,3.48,-19.35,0.68,-0.31,-0.06,0
9.03,4.27,-32.41,0.45,-0.55,-0.04,0
22.95,8.73,-47.85,0.15,-0.84,-0.03,0
39.31,13.85,-59.39,-0.43,-1.18,-0.22,0
51.39,28.63,-62.74,-1.17,-1.44,-0.63,0
36.19,58.59,-41.20,-1.76,-1.39,-1.01,0
-14.10,90.88,31.13,-1.90,-1.09,-0.97,0
-73.91,96.07,143.74,-1.62,-0.58,-0.56,0
-109.86,65.80,249.63,-1.19,-0.04,-0.14,0
-102.72,20.20,318.73,-0.74,0.47,0.04,0
-72.63,-25.02,351.07,-0.31,0.93,0.01,0
-41.99,-58.59,359.25,0.16,1.29,-0.08,0
-23.93,-79.71,351.14,0.29,1.33,0.66,0
-53.89,65.31,278.81,2.68,1.96,0.59,0
-205.08,368.23,93.44,1.45,4.00,0.79,0
-84.84,362.37,91.55,1.73,2.34,0.89,0
120.85,67.08,201.60,2.74,1.53,-0.02,0
181.76,-214.42,247.50,2.28,1.09,-0.95,0
159.67,-266.42,224.18,2.28,0.64,-1.35,0
65.61,-159.42,178.77,2.41,0.72,-1.14,0
-33.45,-0.73,113.59,2.86,1.28,-0.44,0
-74.89,85.45,48.40,3.15,1.68,0.06,0
-52.67,70.43,2.08,3.19,1.88,0.10,0
-13.92,19.29,-22.34,2.87,1.71,-0.17,0
4.09,-10.31,-36.07,2.65,1.61,-0.41,0
-1.46,-7.02,-53.96,2.45,1.40,-0.52,0
-21.97,12.82,-86.24,2.24,1.30,-0.40,0
-36.80,23.62,-119.69,1.98,1.28,-0.22,0
-40.41,13.49,-136.05,1.71,1.31,-0.12,0
-31.19,-7.39,-134.89,1.50,1.34,-0.11,0
-12.88,-25.51,-126.04,1.35,1.30,-0.13,0
2.14,-35.10,-119.45,1.23,1.20,-0.16,0
4.82,-36.19,-121.89,1.16,1.07,-0.17,0
-3.91,-31.01,-136.84,1.06,1.03,-0.20,0
-13.61,-17.03,-155.76,0.94,1.04,-0.17,0
-20.51,-2.20,-167.91,0.86,1.01,-0.11,0
-21.12,10.56,-174.38,0.83,0.96,-0.04,0
-13.98,12.82,-177.43,0.78,0.82,0.00,0
-4.33,5.55,-180.24,0.70,0.70,-0.02,0
3.36,-3.78,-182.43,0.61,0.62,-0.06,0
8.73,-9.58,-181.34,0.55,0.57,-0.09,0
13.67,-12.15,-177.19,0.54,0.46,-0.09,0
18.07,-15.01,-173.65,0.52,0.40,-0.12,0
20.14,-18.37,-171.45,0.51,0.31,-0.16,0
19.84,-20.20,-171.51,0.51,0.25,-0.17,0
18.68,-23.62,-171.26,0.45,0.14,-0.16,0
18.55,-27.89,-169.56,0.38,0.04,-0.14,0
18.49,-32.17,-165.71,0.31,-0.04,-0.12,0
20.63,-35.40,-158.75,0.26,-0.12,-0.10,0
24.90,-35.77,-149.78,0.21,-0.24,-0.08,0
29.72,-32.53,-141.48,0.17,-0.36,-0.08,0
33.94,-25.82,-133.48,0.11,-0.47,-0.11,0
36.38,-17.70,-122.92,0.06,-0.56,-0.14,0
36.93,-9.83,-109.86,0.03,-0.63,-0.18,0
35.83,-3.11,-95.21,0.02,-0.70,-0.21,0
32.41,2.08,-79.35,0.03,-0.74,-0.22,0
28.44,3.85,-63.66,0.06,-0.76,-0.22,0
25.39,1.95,-49.13,0.10,-0.77,-0.20,0
23.62,-3.17,-36.07,0.15,-0.75,-0.19,0
22.28,-10.50,-23.19,0.22,-0.71,-0.17,0
21.85,-20.08,-9.77,0.28,-0.71,-0.17,0
21.91,-29.42,2.08,0.34,-0.71,-0.16,0
20.08,-34.67,12.15,0.39,-0.67,-0.15,0
16.66,-34.73,21.12,0.47,-0.60,-0.16,0
12.27,-29.36,28.87,0.57,-0.58,-0.17,0
5.37,-19.59,33.14,0.66,-0.53,-0.17,0
-2.50,-8.24,33.75,0.74,-0.50,-0.14,0
-8.79,3.42,30.94,0.79,-0.47,-0.11,0
-14.22,13.31,26.98,0.81,-0.43,-0.10,0
-18.31,19.65,24.60,0.81,-0.37,-0.07,0
-20.63,22.28,25.70,0.82,-0.26,-0.04,0
-19.17,21.36,31.01,0.85,-0.18,-0.01,0
-13.61,19.04,38.57,0.89,-0.14,0.01,0
-4.70,14.77,44.98,0.94,-0.12,0.01,0
4.15,7.81,48.34,0.99,-0.12,0.00,0
10.19,-0.37,47.61,1.00,-0.13,-0.02,0
13.55,-7.39,44.19,0.98,-0.16,-0.06,0
13.37,-10.07,41.14,0.93,-0.20,-0.10,0
9.52,-7.81,40.34,0.90,-0.22,-0.12,0
3.23,-2.87,40.34,0.89,-0.25,-0.14,0
-3.42,2.69,39.12,0.88,-0.26,-0.14,0
-10.13,7.51,36.80,0.87,-0.25,-0.12,0
-15.20,10.13,34.85,0.84,-0.22,-0.10,0
-17.03,10.13,35.64,0.81,-0.17,-0.09,0
-16.05,8.85,39.61,0.81,-0.15,-0.08,0
-13.43,6.53,43.82,0.84,-0.14,-0.08,0
-11.17,2.99,45.78,0.84,-0.14,-0.08,0
-10.25,-0.18,45.53,0.84,-0.14,-0.08,0
-11.29,-1.22,44.98,0.83,-0.07,-0.09,0
-13.06,0.31,46.08,0.87,-0.00,-0.10,0
-15.01,4.03,48.71,0.94,0.08,-0.09,0
-15.69,7.75,51.33,1.06,0.17,-0.07,0
-14.71,9.40,52.19,1.18,0.22,-0.03,0
-11.54,7.69,50.05,1.24,0.24,-0.03,0
-8.30,6.16,46.51,1.29,0.22,-0.06,0
-7.14,8.79,40.95,1.31,0.18,-0.08,0
-8.30,14.47,33.94,1.31,0.18,-0.09,0
-9.34,20.08,27.59,1.32,0.17,-0.07,0
-7.81,21.79,22.89,1.32,0.18,-0.06,0
-3.11,17.46,20.08,1.30,0.19,-0.06,0
3.91,9.03,19.35,1.28,0.19,-0.08,0
10.99,-1.89,20.08,1.25,0.19,-0.11,0
16.42,-11.96,20.02,1.22,0.16,-0.14,0
17.94,-18.62,18.19,1.17,0.13,-0.17,0
14.53,-18.98,14.47,1.12,0.10,-0.20,0
7.63,-13.00,9.40,1.09,0.08,-0.18,0
0.37,-5.55,4.27,1.05,0.06,-0.15,0
-4.58,0.61,0.18,1.01,0.05,-0.12,0
-6.96,4.03,-1.71,0.97,0.03,-0.10,0
-6.96,5.00,-1.22,0.94,0.01,-0.08,0
-5.00,4.58,0.92,0.91,-0.01,-0.07,0
-1.65,3.42,4.03,0.89,-0.02,-0.08,0
2.01,1.59,6.96,0.88,-0.02,-0.09,0
4.94,0.18,9.95,0.89,-0.03,-0.11,0
6.35,-0.73,12.15,0.89,-0.05,-0.12,0
5.07,-0.92,12.70,0.91,-0.01,-0.15,0
2.20,1.34,13.24,0.93,-0.01,-0.15,0
-1.22,4.03,12.63,0.95,-0.01,-0.13,0
-4.27,5.07,11.35,0.96,-0.01,-0.12,0
-5.86,4.76,10.68,0.97,-0.01,-0.11,0
-6.59,3.30,10.80,0.96,-0.02,-0.09,0
-6.29,0.92,11.90,0.97,0.02,-0.07,0
-3.85,-2.75,15.75,1.00,0.09,-0.04,0
1.71,-7.51,22.16,1.03,0.18,-0.05,0
8.48,-10.50,31.07,1.13,0.30,-0.07,0
12.27,-10.68,39.61,1.32,0.53,-0.11,0
13.67,-7.45,45.04,1.64,0.89,-0.15,0
15.87,-2.75,43.58,2.15,1.32,-0.15,0
22.77,-6.77,27.28,2.81,1.80,-0.11,0
33.08,-30.40,-10.38,3.31,2.12,-0.09,0
44.74,-65.55,-68.85,3.48,2.15,-0.06,0
53.71,-93.44,-137.51,3.17,1.90,0.03,0
59.63,-99.43,-194.21,2.67,1.55,0.12,0
58.17,-78.61,-228.76,2.28,1.43,0.22,0
55.73,-43.82,-239.14,2.06,1.41,0.32,0
67.14,-19.84,-242.07,1.82,1.24,0.34,0
83.86,-14.59,-253.91,1.49,1.11,0.31,0
90.45,-27.28,-273.56,1.06,1.12,0.16,0
97.84,-41.32,-293.15,0.58,0.96,0.10,0
103.45,-51.21,-310.24,0.06,0.69,0.05,0
100.16,-54.26,-324.40,-0.46,0.41,-0.03,0
90.64,-44.80,-330.93,-0.88,0.16,-0.07,0
80.87,-26.92,-325.44,-1.22,-0.19,-0.14,0
73.85,-5.13,-313.60,-1.47,-0.70,-0.23,0
70.50,16.54,-299.80,-1.69,-1.20,-0.35,0
64.21,30.64,-279.24,-1.91,-1.49,-0.50,0
50.60,33.75,-240.11,-2.02,-1.68,-0.59,0
33.57,28.08,-181.15,-1.98,-1.86,-0.55,0
21.67,15.99,-120.54,-1.89,-2.10,-0.48,0
22.34,5.25,-71.04,-1.78,-2.36,-0.50,0
22.89,5.62,-29.11,-1.66,-2.52,-0.61,0
13.24,20.69,12.94,-1.48,-2.53,-0.69,0
-2.93,43.82,56.64,-1.25,-2.37,-0.71,0
-15.69,62.68,95.64,-0.99,-2.14,-0.69,0
-24.11,67.93,127.87,-0.75,-1.86,-0.63,0
-31.31,57.19,154.79,-0.53,-1.53,-0.57,0
-37.72,33.81,175.11,-0.38,-1.21,-0.52,0
-40.41,5.13,188.42,-0.29,-0.95,-0.51,0
-42.54,-18.19,196.78,-0.21,-0.80,-0.51,0
-52.80,-31.01,200.81,-0.20,-0.62,-0.52,0
-68.91,-27.40,205.08,-0.20,-0.47,-0.51,0
-89.66,-7.81,209.53,-0.13,-0.35,-0.43,0
-112.67,17.76,210.45,0.02,-0.12,-0.28,0
-128.97,38.82,211.49,0.20,0.26,-0.18,0
-131.65,53.41,219.73,0.45,0.62,-0.10,0
-118.90,63.66,228.09,0.81,0.73,-0.02,0
-98.02,64.09,225.95,1.10,0.85,0.06,0
-68.79,49.93,216.86,1.29,0.80,0.08,0
-39.25,22.28,199.22,1.28,0.49,0.02,0
-33.63,-6.59,173.22,1.21,0.42,-0.13,0
-45.84,-18.43,150.82,1.15,0.50,-0.19,0
-60.85,-10.74,141.11,1.20,0.69,-0.13,0
-68.73,4.27,143.49,1.54,0.62,-0.08,0
-57.80,6.59,154.79,1.74,1.12,0.16,0
-24.72,-9.34,179.38,1.80,0.92,0.13,0
8.30,-18.62,179.14,1.26,0.88,-0.14,0
0.92,13.79,140.44,2.08,0.47,0.02,0
-25.33,17.09,121.46,1.78,0.94,-0.03,0
-5.98,19.04,125.61,1.75,0.51,-0.05,0
-2.69,28.87,99.55,1.82,0.52,0.03,0
-11.05,16.97,75.81,1.75,0.60,0.01,0
-5.43,2.08,60.30,1.59,0.69,-0.03,0
-3.60,-3.11,57.25,1.58,0.82,-0.03,0
4.03,-4.58,62.44,1.67,0.81,0.02,0
18.07,-10.74,63.84,1.68,0.73,0.02,0
29.17,-18.07,58.47,1.64,0.63,-0.03,0
32.59,-18.86,48.89,1.58,0.52,-0.10,0
26.25,-9.83,36.44,1.51,0.41,-0.13,0
13.06,6.16,21.67,1.45,0.37,-0.10,0
2.32,22.16,8.06,1.40,0.39,-0.04,0
-1.65,31.56,-1.53,1.35,0.38,0.01,0
0.61,33.51,-7.20,1.30,0.36,0.02,0
5.68,29.11,-11.23,1.23,0.32,0.01,0
10.19,22.34,-14.28,1.15,0.29,-0.02,0
12.82,16.60,-16.60,1.09,0.27,-0.05,0
13.85,12.88,-17.52,1.05,0.23,-0.06,0
14.53,10.99,-18.37,1.01,0.19,-0.06,0
14.53,9.40,-20.02,0.99,0.16,-0.04,0
14.16,7.39,-20.75,0.95,0.20,-0.02,0
14.71,5.92,-17.21,0.95,0.19,-0.01,0
16.60,5.98,-12.94,0.97,0.13,-0.01,0
17.88,6.10,-12.08,0.98,0.09,-0.01,0
17.64,6.10,-14.10,0.97,0.08,-0.03,0
16.36,8.24,-16.42,0.95,0.04,-0.04,0
13.79,11.72,-19.04,0.94,0.03,-0.04,0
11.84,14.47,-21.67,0.94,0.06,-0.04,0
11.54,14.59,-23.38,0.96,0.07,-0.03,0
13.24,10.56,-24.48,0.96,0.06,-0.02,0
16.78,3.60,-25.94,0.94,0.04,-0.03,0
18.43,-3.23,-28.02,0.92,0.04,-0.06,0
17.58,-6.90,-29.05,0.90,0.03,-0.08,0
15.38,-7.45,-28.75,0.90,0.00,-0.09,0
12.15,-5.74,-29.24,0.90,-0.03,-0.07,0
8.67,-3.54,-30.76,0.89,-0.05,-0.05,0
6.10,-2.14,-32.10,0.87,-0.07,-0.04,0
4.15,-1.22,-32.29,0.84,-0.09,-0.04,0
2.87,-0.85,-31.01,0.80,-0.11,-0.03,0
2.32,-1.10,-27.95,0.78,-0.13,-0.02,0
1.95,-0.98,-24.05,0.76,-0.14,-0.03,0
2.32,0.24,-20.51,0.74,-0.15,-0.02,0
3.91,1.16,-16.78,0.72,-0.16,-0.02,0
6.16,0.31,-12.15,0.70,-0.17,-0.03,0
8.67,-1.10,-7.02,0.67,-0.19,-0.04,0
10.31,-1.53,-1.53,0.66,-0.21,-0.06,0
10.93,-1.40,5.00,0.65,-0.22,-0.07,0
10.62,-1.46,11.05,0.65,-0.24,-0.08,0
9.52,-1.46,16.42,0.64,-0.24,-0.08,0
7.57,-1.16,21.42,0.63,-0.24,-0.09,0
