gyro_x,gyro_y,gyro_z,accel_x,accel_y,accel_z, eating
1.28,1.83,-1.10,0.03,-0.49,0.88,0
1.46,1.71,-0.61,0.04,-0.49,0.89,0
1.28,1.59,-0.24,0.03,-0.50,0.89,0
1.10,1.77,-0.18,0.02,-0.50,0.88,0
1.40,1.83,-0.06,0.02,-0.49,0.88,0
1.34,1.65,0.06,0.02,-0.50,0.89,0
1.16,1.53,0.18,0.03,-0.49,0.89,0
1.16,1.65,0.67,0.03,-0.49,0.89,0
1.34,1.77,0.85,0.03,-0.49,0.89,0
1.59,1.83,0.92,0.02,-0.49,0.89,0
1.71,1.95,0.92,0.02,-0.49,0.89,0
1.89,2.08,0.98,0.02,-0.48,0.89,0
2.08,2.01,0.61,0.02,-0.48,0.88,0
2.14,1.89,0.49,0.02,-0.48,0.88,0
2.08,1.83,0.43,0.03,-0.48,0.88,0
1.89,2.01,0.37,0.04,-0.47,0.88,0
1.59,2.14,0.18,0.04,-0.47,0.88,0
1.53,1.77,0.00,0.04,-0.47,0.88,0
1.10,1.65,-0.18,0.04,-0.48,0.88,0
0.85,1.53,0.00,0.04,-0.48,0.89,0
0.98,1.34,0.00,0.04,-0.48,0.89,0
1.40,1.22,-0.12,0.04,-0.49,0.89,0
1.34,0.98,-0.12,0.03,-0.49,0.89,0
1.16,0.67,0.00,0.03,-0.49,0.89,0
1.22,0.49,0.12,0.03,-0.49,0.89,0
1.10,0.73,0.55,0.03,-0.49,0.89,0
1.22,0.67,0.79,0.03,-0.49,0.89,0
1.46,0.79,0.98,0.03,-0.49,0.89,0
1.34,0.92,0.79,0.02,-0.49,0.89,0
1.46,0.79,0.67,0.02,-0.49,0.89,0
1.40,0.92,0.67,0.01,-0.49,0.89,0
1.71,1.10,0.67,0.02,-0.49,0.89,0
2.14,1.28,0.43,0.02,-0.48,0.88,0
2.44,1.40,0.24,0.03,-0.48,0.88,0
2.20,1.59,0.00,0.03,-0.49,0.88,0
1.95,1.40,-0.31,0.04,-0.49,0.88,0
2.01,1.34,-0.43,0.04,-0.48,0.88,0
1.89,1.53,-0.67,0.04,-0.48,0.88,0
1.46,1.53,-0.92,0.04,-0.49,0.88,0
1.46,1.53,-0.98,0.03,-0.49,0.88,0
1.28,1.40,-1.16,0.03,-0.50,0.88,0
1.10,1.28,-1.34,0.03,-0.50,0.88,0
1.34,0.98,-1.22,0.02,-0.50,0.88,0
1.53,0.79,-1.22,0.02,-0.50,0.88,0
1.40,0.67,-1.28,0.02,-0.50,0.89,0
0.98,0.55,-1.53,0.02,-0.51,0.89,0
0.92,0.49,-1.83,0.02,-0.51,0.89,0
1.10,0.55,-2.26,0.03,-0.51,0.89,0
1.40,0.55,-2.44,0.03,-0.51,0.89,0
1.77,0.31,-2.56,0.04,-0.51,0.89,0
1.71,0.24,-3.05,0.04,-0.52,0.89,0
1.40,0.37,-3.30,0.05,-0.52,0.90,0
0.67,0.24,-3.17,0.05,-0.52,0.91,0
0.73,0.31,-3.23,0.05,-0.52,0.92,0
0.85,0.61,-3.17,0.05,-0.52,0.92,0
0.55,0.98,-3.11,0.05,-0.52,0.92,0
0.43,1.22,-2.99,0.05,-0.52,0.92,0
0.31,1.28,-2.99,0.04,-0.52,0.92,0
0.12,1.53,-2.99,0.03,-0.52,0.92,0
0.24,1.95,-3.23,0.03,-0.52,0.92,0
-0.18,2.50,-3.17,0.03,-0.52,0.92,0
0.00,2.62,-3.05,0.02,-0.51,0.92,0
0.37,3.17,-2.93,0.03,-0.51,0.91,0
0.67,3.66,-2.75,0.03,-0.50,0.91,0
0.85,3.97,-2.75,0.03,-0.50,0.90,0
0.61,4.33,-2.62,0.02,-0.49,0.90,0
0.31,4.58,-2.44,0.02,-0.49,0.90,0
-0.24,4.76,-2.50,0.01,-0.49,0.89,0
-0.98,4.58,-2.44,0.01,-0.49,0.88,0
-1.59,4.46,-2.62,0.02,-0.48,0.87,0
-2.26,4.33,-2.99,0.03,-0.48,0.87,0
-3.23,3.97,-3.48,0.03,-0.47,0.88,0
-3.78,3.54,-4.33,0.02,-0.47,0.88,0
-4.15,3.48,-4.76,0.01,-0.48,0.88,0
-4.15,3.60,-5.25,0.01,-0.48,0.88,0
-3.85,3.85,-5.80,0.02,-0.48,0.88,0
-3.42,4.03,-6.41,0.03,-0.47,0.87,0
-3.17,4.64,-6.84,0.04,-0.47,0.87,0
-2.32,4.70,-7.45,0.05,-0.47,0.86,0
-2.01,4.70,-7.93,0.06,-0.47,0.86,0
-2.08,4.82,-8.24,0.06,-0.47,0.86,0
-2.75,4.88,-8.54,0.05,-0.47,0.85,0
-2.32,4.21,-8.91,0.05,-0.45,0.84,0
-1.34,3.72,-8.97,0.06,-0.45,0.82,0
-1.28,3.66,-9.40,0.10,-0.46,0.82,0
-1.83,3.42,-10.31,0.14,-0.49,0.83,0
-2.56,2.93,-11.60,0.15,-0.51,0.85,0
-3.91,2.38,-12.63,0.16,-0.52,0.87,0
-4.58,2.26,-13.06,0.16,-0.52,0.89,0
-4.33,2.93,-12.51,0.16,-0.52,0.90,0
-3.17,3.60,-11.41,0.15,-0.52,0.90,0
-1.77,4.76,-10.38,0.14,-0.53,0.89,0
-0.85,5.98,-9.28,0.15,-0.54,0.89,0
-0.49,6.77,-8.18,0.14,-0.53,0.90,0
0.06,7.51,-7.26,0.13,-0.53,0.90,0
0.43,8.48,-6.29,0.12,-0.52,0.90,0
1.16,9.40,-5.55,0.12,-0.52,0.90,0
2.26,10.19,-4.70,0.12,-0.51,0.90,0
3.42,11.05,-4.09,0.16,-0.52,0.89,0
3.97,11.66,-3.66,0.18,-0.53,0.92,0
4.39,11.78,-3.36,0.18,-0.53,0.93,0
5.25,12.08,-2.87,0.17,-0.53,0.94,0
5.86,12.94,-2.56,0.18,-0.52,0.92,0
6.23,13.49,-1.77,0.18,-0.52,0.91,0
6.23,13.79,-0.37,0.17,-0.52,0.92,0
4.27,13.92,0.73,0.15,-0.54,0.93,0
3.72,14.10,2.26,0.12,-0.55,0.92,0
3.66,13.92,3.72,0.11,-0.54,0.91,0
3.30,13.61,5.31,0.09,-0.52,0.90,0
2.87,13.00,5.98,0.08,-0.51,0.89,0
3.30,12.33,6.59,0.07,-0.50,0.89,0
4.76,11.54,6.90,0.07,-0.50,0.90,0
6.53,10.80,7.63,0.08,-0.49,0.90,0
9.16,9.70,8.36,0.08,-0.49,0.90,0
11.23,9.03,9.34,0.08,-0.50,0.89,0
12.33,8.06,10.68,0.08,-0.51,0.88,0
12.15,6.65,12.08,0.07,-0.52,0.87,0
12.02,4.88,13.67,0.06,-0.51,0.86,0
10.93,3.17,15.44,0.05,-0.50,0.85,0
8.85,1.65,16.54,0.05,-0.49,0.84,0
7.14,0.31,17.64,0.06,-0.48,0.83,0
5.80,-0.92,18.74,0.08,-0.47,0.82,0
4.21,-2.38,18.74,0.09,-0.46,0.82,0
3.36,-3.60,18.37,0.10,-0.45,0.83,0
3.30,-5.00,17.33,0.10,-0.45,0.82,0
3.60,-6.10,16.30,0.09,-0.45,0.82,0
4.39,-6.41,15.75,0.08,-0.46,0.82,0
5.98,-6.29,15.26,0.06,-0.46,0.82,0
7.02,-5.74,15.26,0.06,-0.49,0.83,0
7.26,-4.94,15.14,0.04,-0.51,0.82,0
7.45,-4.64,15.56,0.03,-0.52,0.81,0
7.08,-5.13,15.14,0.02,-0.51,0.80,0
6.65,-5.49,14.89,0.04,-0.51,0.80,0
6.35,-6.35,13.98,0.05,-0.50,0.80,0
5.92,-7.20,12.70,0.05,-0.50,0.82,0
6.16,-7.87,11.23,0.05,-0.50,0.82,0
7.32,-8.18,10.07,0.03,-0.49,0.83,0
9.40,-8.18,9.28,0.02,-0.48,0.82,0
12.45,-7.93,8.54,0.01,-0.47,0.81,0
15.44,-7.57,8.12,-0.01,-0.47,0.80,0
17.21,-6.47,7.93,-0.03,-0.48,0.78,0
18.37,-5.62,8.48,-0.05,-0.48,0.77,0
18.13,-4.82,9.03,-0.05,-0.48,0.77,0
17.64,-4.27,8.73,-0.06,-0.46,0.76,0
18.19,-3.91,7.69,-0.07,-0.46,0.75,0
18.13,-3.72,6.16,-0.08,-0.45,0.75,0
18.37,-3.30,4.64,-0.09,-0.44,0.74,0
19.10,-2.93,2.81,-0.10,-0.44,0.74,0
19.47,-1.89,1.10,-0.11,-0.45,0.75,0
19.35,-0.67,-0.31,-0.12,-0.46,0.76,0
20.32,0.79,-1.46,-0.12,-0.46,0.76,0
21.36,2.32,-2.56,-0.12,-0.47,0.78,0
23.13,3.72,-3.97,-0.14,-0.48,0.77,0
24.54,4.76,-5.19,-0.18,-0.52,0.77,0
24.17,7.02,-6.35,-0.21,-0.57,0.78,0
23.62,9.58,-7.08,-0.22,-0.60,0.79,0
23.50,11.11,-7.39,-0.23,-0.58,0.79,0
23.99,12.76,-8.12,-0.22,-0.57,0.79,0
25.51,14.53,-9.46,-0.20,-0.55,0.79,0
27.95,15.63,-10.68,-0.18,-0.54,0.76,0
28.50,15.56,-12.15,-0.15,-0.55,0.76,0
26.67,15.08,-13.49,-0.10,-0.55,0.79,0
25.33,13.18,-15.08,-0.05,-0.55,0.80,0
24.29,10.07,-17.94,-0.02,-0.55,0.82,0
20.32,7.45,-21.18,0.02,-0.57,0.87,0
16.91,4.58,-22.95,0.04,-0.57,0.91,0
16.30,1.10,-24.78,0.06,-0.56,0.92,0
15.08,-1.46,-27.22,0.05,-0.56,0.96,0
12.33,-2.99,-28.50,0.04,-0.57,0.98,0
12.51,-5.13,-28.69,0.01,-0.56,0.96,0
13.73,-7.02,-28.63,-0.01,-0.54,0.95,0
14.28,-8.00,-28.32,-0.03,-0.54,0.94,0
14.59,-8.79,-27.22,-0.05,-0.55,0.93,0
15.69,-9.70,-26.31,-0.07,-0.58,0.93,0
14.83,-10.19,-25.57,-0.06,-0.60,0.94,0
12.27,-10.56,-24.96,-0.06,-0.61,0.94,0
9.95,-11.47,-24.35,-0.05,-0.60,0.94,0
7.57,-11.84,-24.48,-0.05,-0.60,0.95,0
5.86,-12.02,-24.41,-0.06,-0.59,0.93,0
3.78,-11.84,-23.80,-0.05,-0.60,0.92,0
1.16,-11.54,-23.62,-0.05,-0.60,0.92,0
-0.12,-12.39,-23.74,-0.06,-0.58,0.91,0
-0.67,-12.39,-23.50,-0.06,-0.56,0.90,0
-1.95,-11.72,-23.62,-0.05,-0.55,0.90,0
-2.44,-11.41,-24.11,-0.05,-0.55,0.88,0
-2.69,-10.86,-25.02,-0.05,-0.56,0.88,0
-3.48,-9.95,-25.88,-0.06,-0.57,0.89,0
-4.58,-9.09,-26.61,-0.05,-0.57,0.89,0
-4.64,-8.30,-27.83,-0.05,-0.55,0.88,0
-4.09,-7.45,-29.79,-0.05,-0.54,0.86,0
-4.15,-6.04,-31.37,-0.06,-0.53,0.86,0
-3.30,-4.52,-32.90,-0.07,-0.53,0.85,0
-1.77,-2.81,-34.24,-0.07,-0.54,0.85,0
-0.67,-0.55,-35.34,-0.08,-0.54,0.85,0
-0.31,2.69,-35.22,-0.08,-0.55,0.85,0
-0.18,6.10,-34.73,-0.09,-0.56,0.86,0
2.08,9.70,-34.97,-0.08,-0.56,0.85,0
5.43,12.33,-35.95,-0.08,-0.56,0.85,0
7.81,14.10,-37.48,-0.08,-0.57,0.85,0
9.22,15.56,-39.18,-0.07,-0.58,0.86,0
10.38,17.82,-40.10,-0.07,-0.58,0.86,0
10.93,19.59,-40.95,-0.07,-0.59,0.86,0
8.61,22.34,-40.89,-0.06,-0.61,0.86,0
6.47,25.21,-39.86,-0.06,-0.62,0.86,0
6.16,26.67,-39.12,-0.05,-0.62,0.86,0
5.07,28.14,-39.43,-0.04,-0.63,0.86,0
3.48,29.11,-39.37,-0.04,-0.64,0.86,0
1.83,29.42,-39.00,-0.03,-0.64,0.85,0
0.61,29.60,-38.70,-0.02,-0.63,0.85,0
-0.18,29.17,-38.27,-0.01,-0.63,0.85,0
-1.59,28.56,-37.60,-0.00,-0.64,0.85,0
-3.17,28.38,-36.01,-0.01,-0.65,0.84,0
-4.58,27.95,-34.00,-0.01,-0.64,0.84,0
-5.62,27.16,-32.47,-0.01,-0.62,0.84,0
-6.71,26.43,-31.13,-0.00,-0.62,0.84,0
-7.39,25.76,-29.30,-0.01,-0.62,0.83,0
-8.00,25.09,-27.34,-0.01,-0.61,0.84,0
-8.18,25.21,-25.27,-0.02,-0.61,0.83,0
-7.93,25.51,-23.44,-0.01,-0.62,0.84,0
-7.69,25.33,-22.16,-0.01,-0.63,0.85,0
-7.81,24.90,-21.73,-0.01,-0.63,0.86,0
-7.93,24.05,-22.22,-0.00,-0.62,0.85,0
-7.81,23.50,-21.30,0.00,-0.60,0.85,0
-7.81,23.68,-20.08,0.01,-0.60,0.85,0
-8.00,23.19,-19.53,0.02,-0.60,0.85,0
-8.48,22.52,-18.07,0.02,-0.59,0.84,0
-9.03,21.85,-17.03,0.02,-0.60,0.84,0
-10.99,21.24,-16.66,0.02,-0.60,0.84,0
-12.63,20.14,-15.26,0.02,-0.60,0.84,0
-13.06,20.08,-14.53,0.02,-0.60,0.83,0
-13.37,19.53,-14.10,0.02,-0.61,0.83,0
-14.22,18.74,-13.31,0.02,-0.61,0.85,0
-14.40,18.01,-12.21,0.02,-0.62,0.85,0
-14.04,17.52,-11.96,0.02,-0.63,0.84,0
-14.65,16.36,-11.11,0.02,-0.63,0.85,0
-14.59,16.11,-9.28,0.00,-0.62,0.86,0
-13.00,16.24,-9.03,0.01,-0.61,0.85,0
-13.00,16.17,-8.61,0.01,-0.61,0.85,0
-13.31,16.30,-7.26,0.02,-0.60,0.85,0
-11.84,16.54,-6.53,0.04,-0.60,0.84,0
-10.99,16.05,-6.84,0.06,-0.59,0.84,0
-11.11,14.89,-6.41,0.07,-0.58,0.84,0
-11.05,13.67,-6.10,0.07,-0.58,0.86,0
-10.25,13.06,-5.55,0.08,-0.59,0.86,0
-9.28,12.27,-4.94,0.08,-0.58,0.87,0
-8.73,11.23,-4.15,0.08,-0.58,0.88,0
-8.85,10.68,-3.48,0.07,-0.59,0.89,0
-8.67,10.07,-2.56,0.08,-0.59,0.89,0
-8.30,9.58,-1.77,0.09,-0.58,0.89,0
-7.51,9.34,-1.22,0.11,-0.58,0.88,0
-2.62,9.28,-0.43,0.09,-0.58,0.85,0
-7.26,9.09,-2.87,0.12,-0.59,0.86,0
-14.47,4.39,-3.11,0.11,-0.53,0.86,0
-11.78,4.33,-3.85,0.13,-0.56,0.86,0
-12.82,1.77,-6.59,0.14,-0.53,0.86,0
-10.38,2.01,-2.93,0.13,-0.51,0.88,0
-3.72,4.64,2.01,0.13,-0.53,0.90,0
-0.55,5.37,3.72,0.12,-0.55,0.90,0
0.67,5.86,4.27,0.10,-0.57,0.90,0
-2.32,6.41,3.42,0.10,-0.58,0.90,0
-8.24,5.55,2.26,0.10,-0.56,0.90,0
-11.05,5.00,2.26,0.09,-0.55,0.90,0
-11.05,5.74,2.99,0.11,-0.55,0.90,0
-10.13,6.16,3.60,0.13,-0.56,0.90,0
-9.46,6.65,4.70,0.14,-0.57,0.91,0
-9.22,7.20,5.25,0.14,-0.58,0.93,0
-8.42,7.57,5.98,0.13,-0.58,0.94,0
-7.45,8.61,7.14,0.11,-0.58,0.95,0
-7.45,10.44,8.54,0.10,-0.59,0.95,0
-6.90,12.33,10.56,0.09,-0.59,0.94,0
-6.10,14.16,12.63,0.08,-0.58,0.93,0
-6.29,15.44,13.79,0.07,-0.57,0.93,0
-7.08,17.27,15.14,0.06,-0.57,0.93,0
-7.57,18.62,16.78,0.07,-0.57,0.91,0
-8.30,19.53,18.01,0.09,-0.55,0.91,0
-9.40,20.14,19.04,0.11,-0.55,0.91,0
-9.70,20.14,19.71,0.12,-0.54,0.91,0
-9.52,20.26,19.84,0.11,-0.55,0.91,0
-10.44,20.75,20.45,0.10,-0.55,0.91,0
-11.72,21.06,21.42,0.09,-0.54,0.92,0
-12.45,21.55,22.22,0.09,-0.53,0.91,0
-13.67,22.46,22.89,0.08,-0.54,0.92,0
-15.14,23.25,24.11,0.06,-0.54,0.93,0
-15.38,23.32,25.02,0.04,-0.53,0.92,0
-14.47,23.07,25.21,0.04,-0.51,0.91,0
-13.61,22.83,24.72,0.04,-0.49,0.89,0
-12.70,22.46,23.62,0.05,-0.49,0.89,0
-12.02,21.55,22.09,0.06,-0.49,0.88,0
-11.96,20.63,20.94,0.06,-0.48,0.89,0
-11.23,20.20,20.51,0.06,-0.47,0.90,0
-11.72,20.94,20.94,0.06,-0.48,0.92,0
-12.27,21.91,21.97,0.06,-0.49,0.93,0
-12.82,22.52,22.89,0.05,-0.50,0.94,0
-13.49,23.13,23.01,0.03,-0.50,0.95,0
-13.92,23.62,22.52,0.02,-0.49,0.96,0
-14.40,24.23,21.79,0.01,-0.48,0.95,0
-13.85,24.66,20.94,0.02,-0.47,0.93,0
-13.61,25.21,19.78,0.04,-0.45,0.93,0
-12.63,25.33,18.55,0.06,-0.43,0.91,0
-11.47,25.27,17.40,0.08,-0.43,0.91,0
-11.84,25.15,16.42,0.10,-0.44,0.92,0
-12.21,25.27,16.30,0.09,-0.45,0.92,0
-11.90,25.15,16.48,0.09,-0.46,0.92,0
-13.73,25.09,16.97,0.08,-0.46,0.91,0
-14.71,25.15,18.07,0.07,-0.46,0.90,0
-14.71,25.33,19.10,0.07,-0.44,0.88,0
-14.47,25.02,19.10,0.07,-0.43,0.86,0
-13.61,24.35,18.98,0.07,-0.41,0.84,0
-13.18,23.68,18.74,0.07,-0.40,0.81,0
-12.39,22.83,18.13,0.07,-0.38,0.80,0
-10.93,21.79,17.76,0.09,-0.37,0.79,0
-8.67,20.81,17.88,0.12,-0.36,0.77,0
-7.32,19.71,17.64,0.15,-0.37,0.77,0
-6.53,18.49,17.64,0.16,-0.39,0.77,0
-6.23,17.33,17.27,0.17,-0.39,0.76,0
-6.84,16.11,17.21,0.17,-0.40,0.75,0
-7.81,14.71,16.97,0.18,-0.40,0.74,0
-8.79,12.94,17.21,0.19,-0.39,0.73,0
-9.34,10.50,17.40,0.19,-0.38,0.72,0
-9.52,8.36,17.52,0.19,-0.38,0.71,0
-9.46,6.29,17.33,0.20,-0.38,0.72,0
-9.22,3.72,16.66,0.21,-0.37,0.73,0
-8.42,1.95,15.87,0.21,-0.37,0.76,0
-7.26,1.10,14.95,0.22,-0.38,0.77,0
-5.07,0.12,13.73,0.24,-0.40,0.79,0
-2.75,-0.79,12.45,0.24,-0.41,0.83,0
-1.46,-0.37,11.29,0.24,-0.42,0.85,0
-1.89,0.67,10.01,0.25,-0.46,0.84,0
-0.37,0.24,10.01,0.24,-0.50,0.87,0
1.28,0.06,10.74,0.22,-0.52,0.91,0
2.01,0.49,11.54,0.20,-0.54,0.93,0
1.65,1.53,12.88,0.18,-0.54,0.94,0
1.53,2.50,14.65,0.17,-0.52,0.94,0
2.38,3.78,16.05,0.19,-0.49,0.93,0
5.25,5.07,16.54,0.23,-0.47,0.92,0
9.03,5.98,16.17,0.27,-0.45,0.92,0
13.85,7.08,15.69,0.29,-0.46,0.92,0
18.62,8.48,14.65,0.30,-0.48,0.92,0
23.68,10.50,14.22,0.29,-0.49,0.91,0
27.34,12.76,14.10,0.30,-0.50,0.87,0
29.85,14.22,14.71,0.29,-0.50,0.85,0
29.30,14.59,17.15,0.30,-0.49,0.84,0
27.04,14.53,21.24,0.29,-0.50,0.82,0
24.96,13.98,25.39,0.28,-0.48,0.83,0
23.86,12.70,28.87,0.30,-0.45,0.80,0
23.93,11.17,31.56,0.32,-0.43,0.79,0
23.93,9.64,34.06,0.32,-0.41,0.78,0
25.02,7.08,35.71,0.30,-0.40,0.74,0
25.57,4.09,36.56,0.29,-0.38,0.71,0
24.48,1.04,37.48,0.28,-0.35,0.70,0
23.32,-2.14,38.64,0.26,-0.33,0.68,0
21.85,-5.19,38.82,0.23,-0.32,0.69,0
18.98,-7.45,39.00,0.19,-0.32,0.74,0
15.63,-8.42,39.61,0.15,-0.34,0.78,0
15.69,-8.54,40.41,0.12,-0.36,0.79,0
17.03,-8.42,41.14,0.10,-0.33,0.80,0
18.43,-8.61,40.89,0.11,-0.30,0.79,0
19.96,-8.48,39.55,0.14,-0.28,0.78,0
21.12,-8.42,37.11,0.17,-0.25,0.77,0
22.71,-9.16,32.71,0.17,-0.24,0.77,0
25.27,-10.01,27.59,0.16,-0.23,0.76,0
26.31,-10.62,23.50,0.14,-0.25,0.81,0
23.80,-9.52,20.94,0.11,-0.30,0.85,0
25.57,-8.00,20.26,0.09,-0.34,0.86,0
29.54,-6.29,19.23,0.09,-0.33,0.88,0
32.90,-4.64,17.88,0.09,-0.32,0.89,0
35.77,-2.81,16.48,0.08,-0.31,0.87,0
39.06,-1.46,14.71,0.07,-0.29,0.85,0
42.60,-0.61,12.15,0.09,-0.27,0.82,0
45.17,0.18,9.95,0.10,-0.27,0.82,0
48.10,1.22,8.18,0.12,-0.29,0.80,0
52.86,1.65,6.04,0.16,-0.30,0.79,0
57.50,1.10,3.11,0.20,-0.31,0.81,0
62.56,1.28,-0.43,0.19,-0.34,0.83,0
66.53,2.75,-3.48,0.17,-0.40,0.82,0
66.83,5.19,-4.94,0.14,-0.46,0.84,0
65.55,8.85,-5.37,0.11,-0.50,0.84,0
65.92,12.82,-5.68,0.09,-0.49,0.81,0
65.80,17.46,-5.49,0.10,-0.46,0.76,0
65.43,21.55,-5.13,0.12,-0.42,0.69,0
64.51,24.72,-5.43,0.13,-0.38,0.63,0
62.62,27.65,-5.80,0.16,-0.36,0.59,0
58.84,29.85,-6.96,0.18,-0.37,0.59,0
53.71,31.37,-8.12,0.20,-0.42,0.61,0
49.13,31.56,-9.83,0.22,-0.47,0.61,0
43.46,30.33,-13.37,0.22,-0.51,0.63,0
35.16,28.87,-18.55,0.23,-0.56,0.66,0
26.37,26.61,-24.29,0.24,-0.59,0.69,0
19.35,23.25,-30.94,0.26,-0.60,0.73,0
12.70,19.65,-39.67,0.25,-0.62,0.78,0
6.29,16.48,-48.65,0.22,-0.65,0.85,0
3.48,13.98,-56.34,0.17,-0.67,0.88,0
4.09,12.21,-62.44,0.12,-0.65,0.91,0
8.48,11.96,-67.44,0.09,-0.63,0.92,0
15.01,11.47,-71.78,0.07,-0.62,0.91,0
20.69,11.41,-74.71,0.06,-0.64,0.91,0
26.25,11.29,-77.03,0.05,-0.66,0.93,0
29.42,10.62,-79.35,0.05,-0.68,0.95,0
30.58,9.70,-80.69,0.05,-0.70,0.95,0
31.56,8.73,-81.30,0.06,-0.71,0.95,0
31.98,7.20,-81.97,0.10,-0.71,0.93,0
30.70,4.46,-82.52,0.17,-0.69,0.92,0
27.10,1.77,-83.62,0.23,-0.68,0.91,0
22.40,-1.28,-85.21,0.26,-0.68,0.91,0
17.03,-4.21,-86.06,0.26,-0.69,0.91,0
11.29,-7.20,-86.18,0.25,-0.69,0.91,0
6.84,-9.46,-85.33,0.23,-0.67,0.89,0
5.13,-11.60,-83.68,0.22,-0.66,0.86,0
3.54,-13.61,-81.60,0.23,-0.65,0.83,0
1.46,-16.11,-79.41,0.23,-0.65,0.79,0
-1.59,-19.10,-77.70,0.23,-0.65,0.77,0
-4.03,-22.89,-76.11,0.22,-0.66,0.75,0
-6.23,-27.77,-75.44,0.21,-0.67,0.73,0
-11.23,-32.41,-75.13,0.20,-0.70,0.73,0
-17.03,-36.56,-74.52,0.18,-0.74,0.73,0
-21.91,-40.89,-74.16,0.17,-0.75,0.73,0
-26.37,-45.17,-74.65,0.16,-0.74,0.73,0
-30.33,-49.13,-75.74,0.14,-0.74,0.74,0
-32.71,-52.73,-76.48,0.12,-0.74,0.72,0
-34.06,-56.21,-76.60,0.10,-0.76,0.73,0
-37.17,-58.47,-76.29,0.07,-0.80,0.74,0
-37.78,-60.97,-74.83,0.04,-0.83,0.74,0
-37.72,-63.11,-73.06,0.02,-0.85,0.75,0
-37.54,-65.25,-71.90,0.01,-0.85,0.73,0
-36.56,-68.18,-70.86,-0.01,-0.85,0.71,0
-36.93,-70.86,-69.89,-0.02,-0.84,0.70,0
-36.01,-73.61,-69.09,-0.03,-0.83,0.70,0
-35.22,-76.17,-69.03,-0.05,-0.82,0.71,0
-34.48,-77.51,-68.18,-0.07,-0.83,0.71,0
-33.20,-78.43,-67.44,-0.07,-0.83,0.71,0
-31.49,-79.22,-66.96,-0.08,-0.83,0.73,0
-29.48,-80.51,-67.02,-0.08,-0.82,0.74,0
-26.61,-81.60,-68.24,-0.10,-0.80,0.75,0
-24.41,-81.85,-69.27,-0.11,-0.82,0.77,0
-22.71,-81.42,-69.27,-0.12,-0.83,0.77,0
-18.86,-81.48,-68.73,-0.13,-0.83,0.76,0
-15.87,-80.87,-68.48,-0.14,-0.82,0.76,0
-12.33,-80.20,-68.42,-0.15,-0.80,0.75,0
-9.89,-79.35,-68.05,-0.15,-0.79,0.73,0
-7.93,-78.74,-67.44,-0.15,-0.80,0.73,0
-6.53,-78.06,-66.71,-0.15,-0.81,0.72,0
-5.86,-77.64,-66.28,-0.15,-0.82,0.72,0
-5.55,-78.12,-65.92,-0.15,-0.84,0.74,0
-5.68,-79.41,-65.92,-0.16,-0.86,0.76,0
-6.23,-80.69,-66.10,-0.18,-0.89,0.79,0
-6.84,-80.99,-64.82,-0.20,-0.91,0.81,0
-5.92,-81.42,-62.44,-0.21,-0.91,0.81,0
-4.33,-80.63,-59.75,-0.23,-0.88,0.80,0
-0.73,-79.10,-56.21,-0.24,-0.84,0.79,0
4.70,-77.09,-52.19,-0.23,-0.80,0.77,0
10.50,-75.50,-48.40,-0.23,-0.77,0.73,0
16.36,-74.04,-44.25,-0.24,-0.75,0.71,0
21.73,-72.39,-40.53,-0.25,-0.73,0.70,0
24.90,-70.25,-36.99,-0.27,-0.75,0.73,0
25.57,-65.80,-33.02,-0.29,-0.79,0.76,0
26.12,-61.16,-28.08,-0.32,-0.86,0.82,0
24.72,-55.97,-22.64,-0.35,-0.90,0.84,0
24.78,-52.06,-17.03,-0.38,-0.90,0.84,0
22.09,-47.97,-12.45,-0.39,-0.88,0.82,0
19.71,-43.40,-8.00,-0.40,-0.83,0.80,0
18.80,-38.88,-3.42,-0.41,-0.78,0.78,0
19.41,-34.18,0.49,-0.43,-0.74,0.75,0
21.55,-29.60,4.46,-0.43,-0.70,0.73,0
24.17,-25.39,9.03,-0.43,-0.67,0.71,0
27.40,-21.36,13.67,-0.43,-0.65,0.68,0
30.15,-18.01,18.31,-0.43,-0.63,0.65,0
32.84,-15.26,22.28,-0.44,-0.62,0.63,0
33.57,-12.27,26.00,-0.43,-0.61,0.62,0
32.78,-9.40,30.09,-0.44,-0.61,0.61,0
30.64,-7.32,34.18,-0.45,-0.60,0.62,0
27.04,-5.07,37.66,-0.47,-0.59,0.62,0
23.56,-2.81,40.04,-0.48,-0.58,0.61,0
20.69,-1.40,42.85,-0.50,-0.56,0.62,0
19.10,0.37,45.10,-0.54,-0.55,0.62,0
16.36,3.23,47.18,-0.57,-0.56,0.63,0
14.28,5.19,49.26,-0.61,-0.56,0.63,0
11.60,6.59,50.72,-0.64,-0.57,0.64,0
9.03,9.34,52.06,-0.65,-0.57,0.66,0
8.54,11.17,53.83,-0.70,-0.59,0.67,0
7.45,12.39,55.24,-0.73,-0.61,0.67,0
7.08,13.49,57.31,-0.76,-0.64,0.66,0
3.54,14.89,59.81,-0.77,-0.67,0.68,0
-1.65,15.63,62.01,-0.78,-0.70,0.70,0
-5.80,15.69,63.17,-0.81,-0.68,0.72,0
-7.93,15.08,63.78,-0.84,-0.65,0.74,0
-11.84,14.89,64.64,-0.87,-0.66,0.76,0
-16.97,16.48,66.04,-0.85,-0.70,0.80,0
-19.29,18.86,67.69,-0.83,-0.73,0.81,0
-18.49,20.63,68.85,-0.83,-0.71,0.82,0
-17.46,22.40,69.82,-0.83,-0.67,0.82,0
-16.78,24.41,71.96,-0.79,-0.64,0.82,0
-14.16,26.37,74.04,-0.76,-0.62,0.81,0
-12.15,28.14,75.99,-0.72,-0.62,0.79,0
-9.34,28.32,78.55,-0.69,-0.62,0.75,0
-6.29,28.02,80.81,-0.65,-0.60,0.71,0
-5.49,28.87,81.91,-0.58,-0.59,0.69,0
-7.20,29.11,82.82,-0.52,-0.57,0.68,0
-10.38,28.69,83.37,-0.48,-0.58,0.68,0
-16.54,29.36,84.23,-0.45,-0.61,0.70,0
-20.57,30.09,85.14,-0.42,-0.62,0.70,0
-22.89,30.94,85.69,-0.40,-0.59,0.68,0
-25.27,31.68,85.33,-0.35,-0.56,0.68,0
-30.94,33.57,84.90,-0.33,-0.58,0.72,0
-36.56,37.11,85.45,-0.33,-0.61,0.75,0
-36.44,40.34,85.45,-0.31,-0.59,0.75,0
-34.48,44.01,83.37,-0.28,-0.55,0.73,0
-31.25,47.18,80.93,-0.25,-0.53,0.70,0
-27.59,50.29,78.12,-0.22,-0.50,0.68,0
-22.58,52.61,74.34,-0.20,-0.49,0.65,0
-22.03,55.36,70.01,-0.18,-0.54,0.67,0
-23.62,59.81,66.96,-0.17,-0.61,0.70,0
-24.66,63.66,64.64,-0.17,-0.69,0.72,0
-27.04,65.98,63.35,-0.16,-0.69,0.74,0
-27.10,67.99,60.91,-0.16,-0.67,0.76,0
-31.01,70.74,57.80,-0.15,-0.65,0.78,0
-32.59,73.73,55.30,-0.14,-0.65,0.76,0
-31.01,76.42,53.34,-0.13,-0.61,0.74,0
-29.17,78.92,51.09,-0.12,-0.59,0.73,0
-27.34,81.05,49.80,-0.11,-0.58,0.72,0
-24.60,83.37,48.95,-0.10,-0.60,0.72,0
-24.41,86.18,47.97,-0.09,-0.65,0.74,0
-25.27,88.44,48.46,-0.10,-0.68,0.74,0
-23.38,88.56,48.58,-0.11,-0.65,0.71,0
-22.03,87.95,47.24,-0.09,-0.62,0.67,0
-22.46,87.71,45.47,-0.07,-0.62,0.64,0
-24.60,86.98,44.25,-0.06,-0.62,0.64,0
-25.82,86.24,43.52,-0.05,-0.61,0.66,0
-27.34,86.67,43.46,-0.05,-0.63,0.68,0
-25.76,86.55,43.70,-0.05,-0.63,0.68,0
-23.80,86.12,42.79,-0.03,-0.61,0.68,0
-23.80,85.33,41.44,-0.03,-0.61,0.70,0
-26.37,85.75,40.89,-0.04,-0.65,0.74,0
-26.67,86.06,40.83,-0.05,-0.65,0.74,0
-23.50,85.45,40.16,-0.05,-0.62,0.70,0
-21.91,84.72,38.33,-0.03,-0.58,0.66,0
-19.47,83.56,35.95,-0.01,-0.54,0.63,0
-18.07,82.21,33.45,0.00,-0.53,0.63,0
-16.72,80.08,30.40,-0.00,-0.53,0.63,0
-14.40,78.49,27.10,-0.01,-0.54,0.65,0
-12.27,77.82,23.74,0.01,-0.56,0.65,0
-10.31,76.66,20.75,0.01,-0.59,0.66,0
-11.35,75.50,18.13,0.02,-0.62,0.68,0
-13.00,74.34,16.17,0.03,-0.63,0.70,0
-13.85,73.18,13.85,0.04,-0.63,0.72,0
-15.01,72.33,11.35,0.06,-0.64,0.74,0
-14.65,70.86,8.85,0.09,-0.64,0.74,0
-13.98,67.99,5.07,0.14,-0.65,0.75,0
-15.01,64.21,0.37,0.20,-0.68,0.75,0
-16.05,58.78,-5.00,0.23,-0.72,0.76,0
-17.58,52.49,-11.54,0.25,-0.73,0.78,0
-18.01,46.08,-17.46,0.28,-0.73,0.80,0
-17.76,40.34,-22.22,0.29,-0.72,0.82,0
-14.65,34.79,-26.43,0.30,-0.71,0.83,0
-11.35,30.52,-30.33,0.29,-0.72,0.84,0
-9.09,27.95,-33.26,0.28,-0.75,0.83,0
-7.69,25.51,-35.16,0.27,-0.75,0.82,0
-6.35,22.95,-36.80,0.27,-0.75,0.81,0
-7.63,20.51,-38.88,0.27,-0.77,0.80,0
-8.73,18.25,-39.92,0.28,-0.75,0.79,0
-8.42,16.54,-39.67,0.28,-0.72,0.77,0
-9.40,14.83,-39.55,0.28,-0.69,0.74,0
-12.27,13.92,-39.49,0.28,-0.71,0.73,0
-14.65,13.49,-38.02,0.28,-0.71,0.72,0
-15.87,12.15,-37.11,0.29,-0.70,0.71,0
-19.10,9.70,-37.48,0.30,-0.68,0.71,0
-20.57,7.87,-36.01,0.30,-0.65,0.70,0
-20.39,6.35,-35.16,0.30,-0.64,0.70,0
-20.14,4.70,-35.89,0.30,-0.65,0.71,0
-20.26,2.99,-36.25,0.31,-0.64,0.71,0
-21.30,1.71,-36.68,0.31,-0.63,0.72,0
-22.64,0.55,-37.35,0.31,-0.64,0.72,0
-22.64,-1.28,-38.57,0.29,-0.66,0.72,0
-23.32,-2.87,-40.59,0.28,-0.68,0.72,0
-23.86,-4.33,-42.42,0.29,-0.67,0.71,0
-24.05,-6.23,-43.64,0.30,-0.65,0.71,0
-24.60,-7.63,-45.17,0.30,-0.63,0.70,0
-23.68,-9.40,-47.00,0.30,-0.63,0.70,0
-23.50,-10.93,-49.01,0.30,-0.63,0.69,0
-22.16,-12.76,-51.21,0.29,-0.61,0.68,0
-19.84,-14.71,-53.83,0.29,-0.59,0.67,0
-18.68,-16.05,-56.46,0.30,-0.60,0.66,0
-18.01,-17.64,-58.96,0.30,-0.63,0.66,0
-15.50,-19.41,-60.91,0.29,-0.63,0.66,0
-14.65,-21.06,-62.93,0.28,-0.66,0.68,0
-17.27,-21.91,-63.54,0.26,-0.71,0.71,0
-17.64,-22.83,-63.29,0.23,-0.73,0.73,0
-18.13,-23.86,-63.96,0.20,-0.75,0.77,0
-20.69,-23.68,-63.96,0.17,-0.76,0.79,0
-20.45,-23.19,-63.17,0.15,-0.74,0.77,0
-17.27,-22.46,-62.93,0.15,-0.68,0.74,0
-12.70,-21.67,-63.42,0.15,-0.62,0.70,0
-6.77,-20.94,-63.84,0.14,-0.58,0.66,0
-0.55,-20.26,-64.76,0.14,-0.56,0.63,0
4.33,-19.96,-66.16,0.14,-0.56,0.61,0
7.57,-19.23,-67.32,0.14,-0.58,0.62,0
6.77,-17.76,-67.99,0.12,-0.63,0.66,0
4.09,-16.36,-68.30,0.11,-0.68,0.69,0
-1.65,-14.59,-68.12,0.10,-0.74,0.71,0
-5.80,-13.06,-67.32,0.09,-0.74,0.73,0
-8.36,-11.72,-66.89,0.09,-0.71,0.73,0
-9.03,-10.13,-66.41,0.09,-0.67,0.71,0
-7.32,-9.09,-65.92,0.09,-0.62,0.68,0
-2.38,-8.73,-66.35,0.08,-0.56,0.64,0
3.23,-8.36,-67.20,0.08,-0.55,0.61,0
8.30,-7.81,-67.87,0.09,-0.58,0.62,0
9.95,-6.77,-67.63,0.09,-0.67,0.64,0
11.78,-6.47,-65.98,0.07,-0.73,0.67,0
10.86,-6.65,-65.06,0.08,-0.76,0.70,0
8.54,-6.47,-63.05,0.09,-0.76,0.73,0
6.77,-6.10,-60.36,0.10,-0.75,0.74,0
6.04,-5.80,-58.29,0.11,-0.73,0.74,0
5.49,-5.55,-55.91,0.12,-0.70,0.74,0
5.98,-6.16,-53.77,0.12,-0.67,0.71,0
9.46,-7.75,-52.25,0.10,-0.62,0.70,0
14.47,-8.42,-51.21,0.09,-0.59,0.71,0
19.59,-8.73,-49.26,0.08,-0.60,0.71,0
25.02,-9.16,-46.69,0.05,-0.62,0.70,0
28.75,-9.70,-43.82,0.04,-0.66,0.72,0
27.89,-9.70,-39.79,0.02,-0.70,0.74,0
27.34,-10.68,-34.97,0.01,-0.70,0.76,0
25.70,-11.60,-31.01,0.01,-0.68,0.76,0
22.46,-12.27,-27.04,0.02,-0.65,0.77,0
20.26,-12.70,-22.64,0.04,-0.61,0.76,0
18.80,-13.00,-18.55,0.03,-0.56,0.77,0
17.27,-13.06,-15.14,0.04,-0.53,0.78,0
16.78,-13.31,-12.39,0.03,-0.52,0.79,0
14.95,-13.98,-8.54,0.02,-0.53,0.79,0
15.01,-14.71,-5.43,0.01,-0.53,0.81,0
16.78,-15.38,-3.91,0.01,-0.51,0.81,0
17.94,-16.78,-2.75,0.01,-0.49,0.81,0
17.33,-17.52,-2.20,-0.00,-0.54,0.84,0
13.55,-15.75,-0.31,-0.01,-0.60,0.86,0
13.06,-15.20,3.42,-0.03,-0.64,0.88,0
10.25,-14.59,6.65,-0.04,-0.67,0.89,0
7.20,-13.98,9.46,-0.08,-0.67,0.89,0
5.00,-14.77,11.84,-0.11,-0.66,0.88,0
4.03,-15.44,13.31,-0.11,-0.64,0.87,0
5.49,-16.11,12.39,-0.11,-0.61,0.85,0
9.03,-17.52,13.31,-0.12,-0.56,0.82,0
13.31,-17.33,15.93,-0.13,-0.55,0.81,0
19.59,-16.91,16.78,-0.13,-0.53,0.78,0
24.54,-17.88,17.40,-0.15,-0.53,0.79,0
22.64,-15.87,17.03,-0.15,-0.62,0.84,0
16.97,-14.95,17.70,-0.16,-0.69,0.86,0
13.67,-17.82,18.86,-0.19,-0.69,0.87,0
6.77,-19.59,19.10,-0.19,-0.69,0.88,0
0.98,-19.59,21.06,-0.21,-0.67,0.86,0
0.00,-18.68,23.56,-0.22,-0.62,0.84,0
0.98,-16.36,24.48,-0.22,-0.57,0.81,0
2.32,-12.76,25.45,-0.21,-0.54,0.78,0
3.48,-9.52,25.27,-0.19,-0.53,0.76,0
5.37,-8.42,23.19,-0.18,-0.51,0.74,0
6.84,-7.87,20.81,-0.17,-0.50,0.72,0
7.45,-6.84,19.47,-0.17,-0.52,0.75,0
6.59,-4.52,19.78,-0.17,-0.56,0.76,0
7.51,-2.75,21.12,-0.18,-0.59,0.78,0
4.64,0.61,21.91,-0.18,-0.66,0.80,0
2.08,3.23,23.38,-0.19,-0.68,0.80,0
0.43,3.54,23.50,-0.20,-0.66,0.78,0
-3.42,3.91,22.58,-0.21,-0.63,0.78,0
-6.35,4.70,20.94,-0.21,-0.60,0.78,0
-5.43,5.80,19.23,-0.20,-0.57,0.79,0
-2.81,6.59,18.13,-0.19,-0.57,0.80,0
0.61,6.16,16.05,-0.19,-0.58,0.81,0
6.16,5.74,13.31,-0.20,-0.59,0.81,0
10.80,6.96,11.84,-0.22,-0.62,0.80,0
14.40,10.13,13.37,-0.21,-0.65,0.80,0
16.54,11.41,14.16,-0.20,-0.68,0.80,0
14.40,10.86,13.06,-0.19,-0.73,0.81,0
10.62,10.31,13.00,-0.20,-0.73,0.80,0
7.57,9.16,12.51,-0.20,-0.71,0.80,0
4.82,7.93,10.74,-0.20,-0.68,0.80,0
4.15,7.20,8.36,-0.20,-0.65,0.79,0
6.16,6.59,6.47,-0.20,-0.61,0.79,0
9.64,4.58,3.54,-0.19,-0.57,0.77,0
13.55,3.42,0.85,-0.20,-0.55,0.74,0
16.05,4.76,0.18,-0.20,-0.56,0.73,0
14.89,6.71,-0.73,-0.20,-0.61,0.77,0
12.94,8.36,-1.28,-0.21,-0.65,0.77,0
12.15,7.63,-1.65,-0.21,-0.65,0.75,0
8.00,7.14,-2.44,-0.20,-0.65,0.77,0
6.04,7.39,-4.39,-0.21,-0.65,0.74,0
4.64,7.63,-6.47,-0.22,-0.63,0.74,0
3.97,8.91,-7.81,-0.23,-0.61,0.73,0
3.23,11.72,-9.34,-0.22,-0.59,0.73,0
2.93,14.83,-11.72,-0.21,-0.58,0.75,0
2.87,16.78,-14.53,-0.22,-0.59,0.76,0
2.38,18.07,-16.78,-0.23,-0.61,0.79,0
0.49,21.00,-18.74,-0.23,-0.63,0.82,0
-0.67,24.54,-19.90,-0.25,-0.68,0.83,0
-2.87,27.40,-20.94,-0.25,-0.68,0.84,0
-4.09,29.72,-22.46,-0.26,-0.67,0.83,0
-4.94,31.68,-24.41,-0.25,-0.65,0.81,0
-5.62,33.87,-25.76,-0.24,-0.64,0.80,0
-6.04,35.58,-27.40,-0.23,-0.66,0.79,0
-7.45,37.54,-28.87,-0.22,-0.67,0.82,0
-7.57,40.47,-29.30,-0.22,-0.69,0.84,0
-6.77,43.03,-29.05,-0.22,-0.70,0.85,0
-5.74,44.80,-28.32,-0.19,-0.71,0.84,0
-5.19,45.23,-28.08,-0.16,-0.71,0.83,0
-5.62,45.65,-27.89,-0.14,-0.73,0.84,0
-7.51,46.08,-27.59,-0.12,-0.76,0.85,0
-10.19,45.84,-26.67,-0.10,-0.78,0.87,0
-12.51,44.31,-26.61,-0.08,-0.79,0.88,0
-14.95,41.75,-27.28,-0.07,-0.79,0.88,0
-16.36,38.82,-28.08,-0.08,-0.77,0.87,0
-16.48,37.17,-28.75,-0.08,-0.75,0.88,0
-15.75,36.56,-29.24,-0.07,-0.73,0.89,0
-14.83,37.48,-28.75,-0.07,-0.73,0.90,0
-11.96,37.78,-27.53,-0.07,-0.71,0.88,0
-8.85,38.09,-27.04,-0.06,-0.68,0.86,0
-5.62,39.12,-26.43,-0.04,-0.65,0.83,0
-3.66,39.86,-26.00,-0.02,-0.64,0.81,0
-3.91,40.83,-25.82,-0.01,-0.63,0.80,0
-4.76,42.97,-25.15,0.00,-0.64,0.81,0
-7.26,44.86,-24.66,0.01,-0.66,0.82,0
-11.05,46.26,-24.11,0.03,-0.68,0.81,0
-15.20,46.20,-23.80,0.04,-0.68,0.80,0
-20.69,46.02,-23.99,0.06,-0.68,0.80,0
-25.39,45.84,-24.35,0.07,-0.66,0.79,0
-27.95,45.23,-24.66,0.08,-0.62,0.78,0
-29.54,44.80,-25.02,0.09,-0.61,0.79,0
-29.66,45.17,-25.21,0.09,-0.62,0.79,0
-27.95,45.59,-24.66,0.10,-0.63,0.79,0
-25.57,46.20,-24.17,0.10,-0.64,0.80,0
-23.99,48.22,-23.32,0.10,-0.67,0.82,0
-22.58,50.11,-21.61,0.10,-0.70,0.82,0
-20.69,50.72,-20.32,0.11,-0.70,0.82,0
-20.63,52.25,-19.53,0.13,-0.72,0.81,0
-21.00,52.80,-19.04,0.14,-0.72,0.80,0
-22.71,53.10,-18.98,0.15,-0.72,0.80,0
-23.74,52.86,-18.74,0.15,-0.72,0.79,0
-23.93,51.82,-18.98,0.16,-0.71,0.79,0
-24.11,49.99,-19.29,0.17,-0.70,0.77,0
-23.50,48.83,-18.98,0.17,-0.70,0.77,0
-21.79,48.03,-18.37,0.18,-0.70,0.76,0
-20.75,47.67,-17.52,0.19,-0.72,0.76,0
-18.07,47.36,-16.05,0.21,-0.72,0.75,0
-15.63,47.06,-14.34,0.23,-0.73,0.73,0
-13.79,45.90,-13.00,0.24,-0.73,0.72,0
-12.88,44.25,-11.84,0.26,-0.73,0.71,0
-11.78,42.42,-10.86,0.27,-0.73,0.69,0
-11.05,40.41,-9.83,0.28,-0.73,0.70,0
-11.78,39.00,-8.36,0.29,-0.75,0.69,0
-12.02,36.87,-6.90,0.30,-0.75,0.69,0
-12.63,34.18,-5.68,0.31,-0.75,0.69,0
-12.76,31.37,-4.27,0.31,-0.75,0.69,0
-11.60,28.81,-2.62,0.31,-0.73,0.67,0
-10.74,26.43,-1.71,0.31,-0.73,0.67,0
-10.01,24.96,-0.18,0.31,-0.73,0.68,0
-8.48,23.19,1.95,0.31,-0.73,0.69,0
-6.04,21.30,3.78,0.31,-0.73,0.69,0
-4.58,20.45,5.55,0.31,-0.74,0.71,0
-3.54,20.14,7.51,0.32,-0.74,0.72,0
-1.53,19.47,9.22,0.31,-0.72,0.72,0
0.06,18.74,10.50,0.31,-0.70,0.72,0
2.26,18.19,11.84,0.31,-0.68,0.71,0
4.15,17.64,13.37,0.31,-0.67,0.71,0
5.07,17.76,14.95,0.30,-0.68,0.72,0
6.90,17.76,16.24,0.30,-0.67,0.72,0
8.06,17.76,17.33,0.29,-0.67,0.72,0
9.70,17.64,18.80,0.29,-0.65,0.71,0
11.35,17.15,19.78,0.29,-0.63,0.68,0
12.70,16.60,20.14,0.29,-0.61,0.68,0
11.96,16.54,20.20,0.28,-0.62,0.70,0
10.93,16.97,20.51,0.27,-0.62,0.72,0
11.84,16.60,20.51,0.27,-0.61,0.72,0
12.63,16.78,19.84,0.27,-0.60,0.72,0
13.85,16.48,19.23,0.27,-0.58,0.71,0
15.26,16.30,18.19,0.27,-0.57,0.70,0
15.20,16.24,17.03,0.26,-0.59,0.71,0
14.40,17.21,16.30,0.25,-0.61,0.72,0
15.75,16.97,16.11,0.24,-0.60,0.72,0
15.81,16.66,15.50,0.24,-0.59,0.71,0
17.46,15.81,14.83,0.24,-0.57,0.70,0
18.80,15.32,13.55,0.23,-0.56,0.70,0
18.25,15.63,12.21,0.22,-0.57,0.72,0
17.76,15.50,11.05,0.22,-0.58,0.72,0
19.29,15.32,9.95,0.22,-0.58,0.71,0
18.31,14.89,8.42,0.23,-0.59,0.71,0
16.54,14.28,6.90,0.23,-0.59,0.70,0
16.17,12.94,5.25,0.24,-0.57,0.69,0
15.14,11.17,2.99,0.25,-0.57,0.69,0
13.24,9.70,0.98,0.26,-0.59,0.71,0
11.78,8.54,0.00,0.26,-0.62,0.72,0
11.17,6.47,-0.85,0.26,-0.63,0.73,0
9.95,4.76,-1.95,0.26,-0.64,0.74,0
8.42,3.48,-2.14,0.27,-0.66,0.76,0
7.39,2.01,-1.95,0.26,-0.66,0.76,0
5.68,0.67,-2.01,0.26,-0.67,0.77,0
4.03,-0.18,-1.77,0.25,-0.68,0.78,0
3.30,-0.79,-1.28,0.25,-0.67,0.78,0
2.62,-1.53,-1.04,0.25,-0.66,0.79,0
2.14,-1.77,-0.98,0.24,-0.67,0.81,0
2.14,-1.46,-0.43,0.23,-0.69,0.82,0
2.56,-1.28,0.31,0.23,-0.69,0.81,0
2.93,-1.22,0.61,0.22,-0.69,0.81,0
1.95,-0.85,1.22,0.22,-0.69,0.80,0
1.16,-0.49,1.83,0.22,-0.69,0.79,0
-0.49,0.18,2.38,0.23,-0.69,0.79,0
-0.79,0.61,3.11,0.25,-0.67,0.77,0
-0.92,1.46,3.66,0.26,-0.66,0.75,0
-0.79,2.75,3.91,0.26,-0.66,0.74,0
-0.67,3.97,4.64,0.26,-0.65,0.73,0
-0.61,5.13,5.74,0.27,-0.65,0.72,0
0.00,6.35,7.08,0.27,-0.65,0.71,0
1.53,7.32,8.36,0.27,-0.63,0.69,0
2.99,8.18,9.77,0.27,-0.61,0.67,0
5.07,8.73,11.05,0.27,-0.59,0.67,0
5.62,9.77,12.45,0.27,-0.60,0.67,0
6.23,10.31,14.47,0.27,-0.60,0.67,0
6.77,10.86,15.87,0.27,-0.60,0.68,0
5.86,10.68,16.24,0.28,-0.60,0.66,0
3.91,9.70,16.66,0.28,-0.60,0.66,0
1.46,8.73,16.60,0.28,-0.59,0.67,0
0.43,7.08,15.93,0.28,-0.58,0.68,0
0.31,4.94,14.53,0.28,-0.56,0.69,0
1.53,2.87,12.88,0.28,-0.56,0.71,0
3.78,1.22,10.80,0.27,-0.56,0.72,0
7.75,-0.73,9.03,0.27,-0.55,0.74,0
11.35,-2.38,6.90,0.26,-0.56,0.76,0
15.26,-3.30,4.76,0.25,-0.57,0.76,0
18.19,-4.27,3.05,0.25,-0.57,0.77,0
19.78,-5.31,1.53,0.25,-0.57,0.77,0
20.51,-5.98,-0.06,0.25,-0.57,0.77,0
21.55,-7.02,-0.73,0.25,-0.56,0.77,0
21.06,-8.00,-1.59,0.26,-0.57,0.78,0
20.08,-8.36,-2.20,0.27,-0.57,0.79,0
19.17,-8.79,-2.81,0.28,-0.58,0.80,0
19.23,-9.34,-3.05,0.28,-0.58,0.81,0
18.86,-9.16,-3.30,0.28,-0.59,0.83,0
18.19,-8.24,-2.81,0.28,-0.60,0.82,0
16.48,-7.51,-2.14,0.28,-0.61,0.83,0
14.77,-6.47,-1.28,0.28,-0.62,0.84,0
12.45,-4.64,0.12,0.27,-0.63,0.84,0
11.47,-3.54,1.77,0.26,-0.63,0.84,0
10.19,-1.65,3.05,0.27,-0.64,0.84,0
9.83,0.37,4.88,0.27,-0.64,0.83,0
9.64,2.38,6.47,0.27,-0.63,0.82,0
9.22,4.76,8.24,0.26,-0.64,0.80,0
9.22,6.96,10.25,0.26,-0.64,0.80,0
7.93,9.34,12.57,0.26,-0.66,0.80,0
6.16,11.78,15.20,0.26,-0.67,0.79,0
5.62,13.49,18.19,0.26,-0.65,0.78,0
3.66,15.32,20.63,0.25,-0.65,0.77,0
2.14,16.85,23.38,0.25,-0.63,0.76,0
1.83,17.82,25.76,0.24,-0.61,0.75,0
2.56,18.68,27.28,0.24,-0.59,0.73,0
3.11,19.35,28.69,0.25,-0.58,0.72,0
3.85,19.96,30.27,0.26,-0.58,0.71,0
3.78,20.14,31.86,0.27,-0.59,0.71,0
3.97,19.41,32.71,0.29,-0.58,0.70,0
3.66,18.01,32.71,0.31,-0.58,0.72,0
1.59,16.72,31.92,0.35,-0.59,0.74,0
0.06,15.38,31.37,0.35,-0.60,0.76,0
-0.92,14.47,30.27,0.35,-0.60,0.77,0
-2.08,13.85,29.11,0.34,-0.61,0.79,0
-4.15,14.04,28.87,0.34,-0.65,0.81,0
-5.80,13.73,28.81,0.32,-0.68,0.83,0
-7.45,13.61,28.63,0.31,-0.70,0.84,0
-8.85,13.73,28.93,0.30,-0.69,0.84,0
-9.70,13.55,29.42,0.30,-0.69,0.83,0
-10.01,13.12,29.97,0.31,-0.68,0.82,0
-9.89,12.70,30.21,0.32,-0.69,0.82,0
-9.28,12.33,30.46,0.34,-0.67,0.82,0
-8.42,11.72,30.09,0.36,-0.66,0.82,0
-7.69,11.11,29.42,0.38,-0.67,0.83,0
-8.73,11.41,28.63,0.39,-0.70,0.85,0
-8.97,11.96,28.93,0.39,-0.70,0.85,0
-8.24,12.27,28.56,0.39,-0.66,0.84,0
-8.24,13.06,28.08,0.38,-0.64,0.82,0
-8.48,14.34,27.83,0.37,-0.62,0.80,0
-8.18,15.63,27.53,0.36,-0.61,0.78,0
-7.81,16.78,26.73,0.35,-0.59,0.77,0
-7.69,17.64,25.82,0.35,-0.58,0.77,0
-8.73,18.43,24.90,0.35,-0.59,0.77,0
-9.40,18.86,24.05,0.35,-0.58,0.76,0
-8.97,18.98,22.77,0.34,-0.55,0.74,0
-9.83,19.29,21.48,0.35,-0.54,0.73,0
-10.07,19.59,20.45,0.37,-0.51,0.71,0
-10.19,19.71,18.49,0.37,-0.49,0.69,0
-10.07,19.90,16.24,0.37,-0.47,0.67,0
-9.28,19.71,14.16,0.37,-0.45,0.65,0
-9.09,19.71,12.21,0.37,-0.44,0.65,0
-9.09,19.53,10.01,0.38,-0.44,0.64,0
-9.22,18.19,7.51,0.39,-0.45,0.64,0
-9.34,17.27,4.76,0.41,-0.45,0.66,0
-8.79,16.60,0.92,0.45,-0.44,0.68,0
-5.37,16.24,-3.54,0.47,-0.43,0.71,0
2.26,16.24,-8.00,0.45,-0.41,0.71,0
8.24,17.82,-11.90,0.43,-0.43,0.70,0
13.06,20.57,-13.43,0.40,-0.46,0.67,0
16.30,23.44,-13.73,0.38,-0.49,0.64,0
17.03,24.96,-13.61,0.37,-0.50,0.62,0
15.50,26.31,-13.73,0.35,-0.52,0.57,0
10.31,26.49,-12.82,0.35,-0.52,0.57,0
6.16,26.86,-11.78,0.36,-0.52,0.56,0
2.56,26.37,-11.11,0.38,-0.52,0.56,0
0.67,24.17,-10.68,0.43,-0.49,0.55,0
-0.06,21.97,-11.84,0.50,-0.48,0.56,0
-0.61,19.35,-14.10,0.57,-0.51,0.59,0
-2.38,16.85,-16.30,0.61,-0.58,0.64,0
-3.30,13.18,-17.70,0.64,-0.65,0.69,0
-3.60,9.09,-19.59,0.66,-0.71,0.74,0
-5.31,5.25,-21.24,0.67,-0.76,0.79,0
-7.57,0.85,-22.22,0.67,-0.80,0.81,0
-10.01,-3.11,-22.16,0.64,-0.83,0.85,0
-12.70,-5.25,-21.67,0.61,-0.85,0.89,0
-14.34,-7.63,-21.18,0.58,-0.84,0.90,0
-15.99,-10.50,-19.96,0.53,-0.80,0.90,0
-15.93,-11.96,-18.37,0.50,-0.75,0.87,0
-13.49,-12.76,-16.78,0.48,-0.70,0.84,0
-9.34,-13.49,-15.32,0.49,-0.66,0.81,0
-4.33,-14.22,-13.24,0.49,-0.63,0.79,0
-0.43,-14.10,-11.78,0.49,-0.62,0.79,0
1.40,-13.67,-10.44,0.49,-0.64,0.79,0
3.91,-13.85,-8.30,0.48,-0.64,0.76,0
5.25,-13.73,-6.35,0.46,-0.64,0.74,0
3.48,-14.04,-4.21,0.45,-0.62,0.71,0
0.43,-15.32,-2.38,0.42,-0.59,0.68,0
-5.74,-15.50,-1.28,0.40,-0.53,0.69,0
-7.75,-15.81,-0.12,0.36,-0.48,0.66,0
-8.79,-16.42,-0.24,0.35,-0.41,0.64,0
-9.16,-15.75,-0.61,0.34,-0.37,0.62,0
-8.67,-13.92,-1.16,0.35,-0.34,0.62,0
-7.75,-12.39,-2.50,0.35,-0.33,0.62,0
-6.59,-10.56,-4.09,0.34,-0.34,0.61,0
-6.04,-8.06,-5.43,0.34,-0.38,0.60,0
-6.47,-6.35,-7.20,0.35,-0.40,0.59,0
-7.32,-5.37,-9.46,0.36,-0.40,0.57,0
-8.30,-3.97,-11.90,0.38,-0.40,0.56,0
-9.46,-3.05,-14.40,0.39,-0.41,0.54,0
-10.19,-2.81,-16.97,0.40,-0.43,0.54,0
-11.54,-2.69,-19.04,0.42,-0.47,0.53,0
-12.82,-3.23,-21.06,0.44,-0.50,0.54,0
-14.28,-4.27,-23.38,0.45,-0.52,0.55,0
-15.08,-5.80,-25.02,0.46,-0.54,0.55,0
-15.14,-7.69,-25.94,0.47,-0.56,0.56,0
-14.34,-8.91,-26.98,0.48,-0.58,0.57,0
-12.57,-10.86,-28.38,0.49,-0.59,0.59,0
-11.05,-13.12,-29.79,0.50,-0.62,0.62,0
-9.95,-14.83,-31.37,0.51,-0.64,0.65,0
-8.30,-16.11,-32.47,0.51,-0.65,0.69,0
-5.68,-18.01,-33.57,0.51,-0.66,0.71,0
-5.31,-18.98,-34.55,0.51,-0.70,0.74,0
-4.70,-19.17,-34.73,0.50,-0.74,0.77,0
-5.74,-19.04,-34.42,0.49,-0.77,0.81,0
-7.32,-18.74,-33.45,0.48,-0.79,0.84,0
-6.84,-18.13,-32.04,0.46,-0.78,0.85,0
-5.19,-17.52,-30.33,0.44,-0.75,0.84,0
-3.23,-16.48,-28.50,0.43,-0.72,0.83,0
0.12,-15.08,-26.49,0.43,-0.69,0.81,0
4.15,-13.31,-24.48,0.42,-0.67,0.79,0
7.32,-11.72,-22.34,0.43,-0.66,0.77,0
10.07,-10.50,-20.39,0.43,-0.66,0.76,0
11.66,-9.64,-18.49,0.42,-0.66,0.76,0
13.00,-9.16,-16.48,0.42,-0.65,0.75,0
13.43,-8.67,-14.53,0.41,-0.64,0.75,0
12.39,-7.81,-13.06,0.39,-0.63,0.74,0
11.29,-7.20,-10.80,0.38,-0.61,0.72,0
10.86,-6.29,-9.03,0.37,-0.59,0.71,0
10.07,-5.62,-7.87,0.37,-0.57,0.70,0
8.97,-5.07,-6.77,0.36,-0.56,0.69,0
8.24,-4.76,-5.86,0.35,-0.56,0.69,0
7.75,-4.15,-5.25,0.35,-0.56,0.69,0
7.69,-3.17,-4.33,0.34,-0.57,0.69,0
7.26,-2.56,-3.23,0.34,-0.58,0.70,0
6.59,-2.01,-2.38,0.34,-0.59,0.68,0
5.86,-1.89,-1.46,0.34,-0.59,0.68,0
4.27,-1.95,-0.67,0.35,-0.60,0.69,0
2.93,-2.56,-0.37,0.34,-0.61,0.69,0
1.16,-3.30,0.12,0.34,-0.60,0.71,0
-0.06,-3.72,0.18,0.34,-0.60,0.72,0
-0.43,-4.09,-0.18,0.35,-0.60,0.72,0
-0.43,-4.58,-0.85,0.34,-0.61,0.72,0
-0.79,-4.94,-1.71,0.33,-0.61,0.72,0
-1.71,-5.25,-2.38,0.34,-0.62,0.72,0
-2.32,-5.62,-2.75,0.34,-0.63,0.72,0
-2.99,-6.35,-3.36,0.34,-0.65,0.73,0
-4.21,-6.59,-3.91,0.34,-0.66,0.74,0
-5.92,-6.65,-4.21,0.34,-0.67,0.76,0
-7.81,-6.59,-4.46,0.33,-0.67,0.76,0
-9.03,-6.53,-4.70,0.32,-0.66,0.76,0
-9.46,-5.92,-4.70,0.31,-0.64,0.76,0
-9.09,-4.94,-4.52,0.31,-0.63,0.76,0
-8.36,-3.91,-4.21,0.30,-0.63,0.77,0
-7.63,-2.44,-4.03,0.30,-0.65,0.79,0
-6.41,-0.85,-3.42,0.29,-0.66,0.80,0
-4.82,0.67,-2.93,0.29,-0.67,0.82,0
-4.39,2.75,-2.14,0.28,-0.68,0.83,0
-3.54,4.58,-0.98,0.27,-0.67,0.83,0
-2.44,5.80,0.12,0.27,-0.66,0.82,0
-1.59,7.75,1.10,0.26,-0.65,0.81,0
-0.37,9.52,2.08,0.26,-0.63,0.80,0
1.22,10.68,2.87,0.26,-0.60,0.79,0
2.56,11.78,3.42,0.27,-0.59,0.79,0
3.60,12.33,3.54,0.27,-0.59,0.78,0
4.15,12.51,3.85,0.28,-0.58,0.77,0
4.46,12.51,3.72,0.28,-0.58,0.76,0
4.88,11.78,3.66,0.28,-0.55,0.75,0
4.39,10.80,2.99,0.28,-0.55,0.75,0
1.28,10.19,2.93,0.26,-0.58,0.75,0
0.18,9.46,3.48,0.24,-0.57,0.74,0
-0.92,8.85,3.48,0.23,-0.56,0.72,0
-2.75,8.48,3.60,0.22,-0.54,0.70,0
-2.44,8.06,3.72,0.22,-0.51,0.68,0
-2.44,7.45,3.60,0.22,-0.51,0.68,0
-2.87,7.45,3.36,0.22,-0.52,0.68,0
-1.71,7.14,3.60,0.23,-0.52,0.69,0
-0.67,6.35,3.11,0.24,-0.54,0.70,0
-0.67,5.25,2.20,0.26,-0.55,0.70,0
-0.12,3.72,1.22,0.27,-0.56,0.71,0
0.67,2.14,0.12,0.28,-0.55,0.71,0
1.40,0.24,-1.53,0.29,-0.55,0.72,0
1.53,-1.34,-2.69,0.30,-0.56,0.74,0
1.95,-3.05,-3.85,0.32,-0.58,0.75,0
2.93,-4.88,-5.31,0.33,-0.60,0.76,0
3.17,-7.26,-7.20,0.33,-0.63,0.78,0
2.14,-9.03,-8.30,0.34,-0.66,0.81,0
1.65,-11.78,-9.28,0.34,-0.68,0.82,0
1.04,-14.65,-10.56,0.33,-0.69,0.84,0
0.43,-16.60,-11.41,0.31,-0.69,0.85,0
1.04,-18.55,-11.47,0.30,-0.68,0.85,0
2.81,-19.59,-11.41,0.29,-0.67,0.85,0
5.80,-20.08,-10.99,0.28,-0.65,0.84,0
9.40,-20.57,-10.50,0.27,-0.63,0.83,0
12.94,-20.69,-10.38,0.27,-0.62,0.83,0
15.44,-20.39,-10.07,0.27,-0.64,0.83,0
16.66,-20.08,-9.40,0.27,-0.66,0.83,0
17.76,-19.90,-8.30,0.27,-0.67,0.82,0
17.70,-20.14,-7.39,0.27,-0.65,0.79,0
16.91,-21.00,-7.14,0.27,-0.63,0.77,0
15.69,-21.85,-7.08,0.27,-0.61,0.75,0
13.85,-22.28,-7.26,0.27,-0.59,0.74,0
12.57,-23.19,-7.69,0.27,-0.58,0.74,0
11.66,-23.80,-7.81,0.26,-0.58,0.74,0
10.44,-23.99,-7.87,0.26,-0.57,0.72,0
10.31,-24.35,-8.00,0.25,-0.56,0.71,0
9.22,-23.86,-8.30,0.24,-0.58,0.70,0
6.65,-22.89,-7.87,0.23,-0.61,0.70,0
4.70,-22.95,-7.57,0.22,-0.61,0.69,0
1.83,-23.07,-7.93,0.21,-0.59,0.68,0
-1.59,-23.38,-9.09,0.21,-0.58,0.67,0
-3.48,-24.11,-10.25,0.21,-0.55,0.66,0
-3.85,-25.15,-11.90,0.20,-0.53,0.66,0
-5.07,-25.51,-13.85,0.19,-0.55,0.67,0
-5.92,-26.37,-15.50,0.19,-0.59,0.68,0
-7.45,-26.92,-16.66,0.19,-0.65,0.72,0
-9.83,-27.10,-17.03,0.18,-0.67,0.75,0
-10.25,-27.22,-17.76,0.17,-0.67,0.77,0
-9.83,-27.65,-19.41,0.16,-0.65,0.77,0
-9.22,-27.22,-21.18,0.15,-0.64,0.77,0
-8.18,-26.37,-22.16,0.15,-0.64,0.76,0
-6.90,-26.18,-23.01,0.15,-0.64,0.77,0
-6.90,-26.00,-24.54,0.14,-0.66,0.79,0
-8.36,-25.02,-25.02,0.13,-0.69,0.81,0
-8.67,-24.60,-24.54,0.13,-0.71,0.82,0
-8.54,-24.96,-25.51,0.13,-0.72,0.83,0
-8.85,-25.82,-27.53,0.12,-0.72,0.84,0
-8.85,-25.57,-28.50,0.12,-0.72,0.84,0
-9.22,-25.27,-28.75,0.12,-0.72,0.85,0
-8.06,-25.57,-30.15,0.11,-0.70,0.85,0
-6.84,-24.60,-31.13,0.11,-0.66,0.85,0
-5.49,-23.62,-31.92,0.11,-0.63,0.84,0
-2.87,-23.07,-32.71,0.10,-0.61,0.82,0
-0.06,-22.52,-33.33,0.10,-0.59,0.79,0
1.89,-21.85,-32.71,0.11,-0.58,0.78,0
3.48,-22.22,-33.08,0.10,-0.57,0.77,0
4.09,-23.01,-34.24,0.09,-0.58,0.76,0
3.23,-23.38,-35.10,0.06,-0.57,0.77,0
2.87,-24.35,-35.95,0.05,-0.58,0.80,0
0.37,-23.56,-36.87,0.03,-0.62,0.83,0
-1.04,-21.91,-35.77,0.00,-0.63,0.84,0
-1.65,-21.18,-34.36,-0.01,-0.62,0.83,0
-3.17,-19.71,-33.14,-0.02,-0.63,0.84,0
-4.82,-18.62,-31.49,-0.03,-0.62,0.81,0
-6.10,-18.43,-29.30,-0.03,-0.60,0.79,0
-6.77,-18.55,-27.34,-0.03,-0.56,0.78,0
-5.49,-19.23,-25.76,-0.03,-0.52,0.76,0
-3.42,-21.12,-24.78,-0.04,-0.52,0.75,0
-2.14,-22.64,-23.68,-0.03,-0.54,0.74,0
-0.73,-24.05,-21.91,-0.03,-0.58,0.76,0
-0.92,-24.72,-19.29,-0.04,-0.65,0.81,0
-1.89,-25.57,-15.08,-0.06,-0.71,0.86,0
-2.81,-26.98,-10.13,-0.07,-0.73,0.90,0
-3.42,-29.42,-6.59,-0.08,-0.73,0.92,0
-5.68,-31.25,-3.17,-0.08,-0.72,0.92,0
-8.12,-33.45,0.73,-0.09,-0.70,0.90,0
-8.36,-34.85,4.88,-0.08,-0.66,0.89,0
-6.96,-35.95,9.22,-0.08,-0.61,0.88,0
-5.49,-37.48,13.00,-0.09,-0.59,0.87,0
-2.75,-39.00,16.36,-0.11,-0.58,0.86,0
2.20,-39.06,20.26,-0.11,-0.59,0.87,0
5.80,-39.55,23.19,-0.11,-0.60,0.89,0
9.28,-38.45,27.22,-0.10,-0.64,0.91,0
11.17,-37.66,31.07,-0.09,-0.66,0.91,0
12.70,-37.11,34.18,-0.08,-0.66,0.90,0
12.15,-37.05,36.07,-0.07,-0.66,0.89,0
10.99,-37.29,37.66,-0.07,-0.64,0.86,0
9.28,-37.90,39.98,-0.07,-0.63,0.84,0
7.26,-37.96,42.18,-0.07,-0.61,0.83,0
6.04,-37.17,44.19,-0.07,-0.60,0.81,0
5.68,-36.44,46.14,-0.07,-0.59,0.81,0
6.53,-36.50,46.75,-0.06,-0.58,0.78,0
8.12,-35.77,47.42,-0.06,-0.56,0.77,0
9.64,-33.87,48.77,-0.07,-0.58,0.77,0
10.19,-30.94,50.42,-0.07,-0.62,0.77,0
11.35,-28.87,51.51,-0.07,-0.64,0.76,0
11.41,-28.02,52.31,-0.07,-0.64,0.75,0
10.93,-27.22,52.92,-0.08,-0.63,0.74,0
9.89,-25.63,53.47,-0.08,-0.64,0.74,0
7.57,-23.07,54.99,-0.08,-0.65,0.73,0
6.71,-21.85,56.82,-0.09,-0.66,0.73,0
6.23,-21.12,57.62,-0.09,-0.65,0.73,0
5.92,-20.14,58.04,-0.10,-0.63,0.73,0
5.25,-18.86,58.72,-0.11,-0.64,0.74,0
4.58,-15.87,59.14,-0.12,-0.65,0.75,0
5.00,-12.70,59.88,-0.13,-0.65,0.76,0
4.58,-10.62,59.33,-0.14,-0.65,0.77,0
3.97,-8.48,58.11,-0.14,-0.64,0.78,0
4.64,-6.04,57.01,-0.14,-0.62,0.77,0
5.74,-3.72,55.73,-0.15,-0.60,0.76,0
6.35,-1.71,54.02,-0.15,-0.61,0.76,0
6.71,1.46,53.41,-0.14,-0.61,0.77,0
7.02,3.72,52.92,-0.14,-0.60,0.77,0
5.62,5.80,51.76,-0.12,-0.61,0.79,0
3.05,8.97,51.15,-0.10,-0.63,0.80,0
-0.18,11.90,50.66,-0.09,-0.63,0.81,0
-3.48,13.43,49.80,-0.07,-0.64,0.83,0
-8.24,14.65,49.32,-0.05,-0.66,0.84,0
-13.61,15.08,49.26,-0.04,-0.66,0.85,0
-19.10,14.83,48.89,-0.03,-0.66,0.86,0
-24.48,14.77,48.71,-0.02,-0.66,0.87,0
-29.66,14.34,49.01,-0.02,-0.66,0.89,0
-33.08,13.61,49.13,-0.03,-0.66,0.88,0
-34.18,12.76,48.58,-0.03,-0.66,0.88,0
-35.64,12.94,47.67,-0.02,-0.66,0.88,0
-37.90,13.67,47.24,-0.01,-0.66,0.90,0
-40.34,14.53,46.69,-0.02,-0.65,0.92,0
-43.27,16.72,45.17,-0.03,-0.65,0.93,0
-43.70,19.29,43.21,-0.04,-0.63,0.93,0
-42.66,22.52,40.47,-0.03,-0.60,0.90,0
-41.14,25.94,37.29,-0.01,-0.57,0.87,0
-38.94,29.17,33.26,-0.00,-0.56,0.85,0
-36.68,32.41,29.17,0.00,-0.54,0.82,0
-35.34,35.34,24.41,0.01,-0.54,0.81,0
-33.45,38.15,19.35,0.00,-0.53,0.80,0
-31.31,41.08,14.95,0.00,-0.52,0.80,0
-28.08,44.56,11.23,0.00,-0.51,0.78,0
-23.19,48.10,7.81,0.00,-0.49,0.75,0
-18.62,51.15,4.70,0.00,-0.47,0.74,0
-16.54,53.22,1.34,0.01,-0.47,0.73,0
-15.81,54.99,-1.22,0.01,-0.48,0.73,0
-15.75,56.03,-3.48,0.01,-0.50,0.74,0
-15.01,56.40,-5.86,0.00,-0.50,0.74,0
-13.92,56.52,-8.54,0.00,-0.49,0.74,0
-13.00,56.88,-11.17,0.00,-0.47,0.74,0
-10.44,56.52,-13.92,0.01,-0.45,0.72,0
-7.87,55.66,-16.85,0.01,-0.45,0.71,0
-5.07,54.20,-19.71,0.02,-0.45,0.71,0
-2.26,52.61,-22.28,0.02,-0.45,0.72,0
-0.18,50.96,-24.54,0.03,-0.45,0.75,0
2.32,48.83,-26.86,0.04,-0.46,0.77,0
3.85,46.45,-29.42,0.04,-0.49,0.80,0
4.94,43.88,-31.31,0.04,-0.50,0.81,0
5.86,41.08,-33.26,0.04,-0.49,0.81,0
6.04,38.02,-34.97,0.05,-0.48,0.81,0
7.02,34.55,-37.11,0.06,-0.47,0.80,0
7.57,31.07,-39.86,0.07,-0.47,0.81,0
7.93,27.77,-42.42,0.09,-0.48,0.82,0
9.22,24.66,-44.56,0.11,-0.49,0.85,0
10.01,21.12,-46.75,0.12,-0.50,0.88,0
10.80,18.98,-48.46,0.13,-0.53,0.91,0
10.07,17.88,-48.89,0.14,-0.57,0.94,0
8.54,16.11,-48.28,0.14,-0.60,0.96,0
6.16,14.10,-47.73,0.13,-0.60,0.97,0
2.75,12.70,-47.24,0.13,-0.60,0.98,0
-0.61,11.11,-46.57,0.14,-0.59,0.96,0
-1.28,9.77,-45.17,0.14,-0.57,0.94,0
-1.04,10.56,-44.01,0.15,-0.55,0.92,0
0.24,11.60,-43.15,0.16,-0.55,0.91,0
0.31,11.41,-42.60,0.16,-0.55,0.89,0
0.73,12.08,-41.26,0.17,-0.56,0.88,0
0.85,12.88,-39.37,0.17,-0.55,0.87,0
0.37,12.88,-38.33,0.18,-0.55,0.85,0
-0.61,11.72,-38.45,0.19,-0.54,0.84,0
-1.04,11.72,-38.33,0.20,-0.53,0.82,0
-2.08,11.72,-38.51,0.20,-0.51,0.81,0
-2.01,13.18,-38.51,0.22,-0.51,0.82,0
-2.81,14.34,-39.06,0.22,-0.51,0.82,0
-4.09,17.03,-38.94,0.24,-0.53,0.85,0
-7.14,16.30,-40.83,0.24,-0.54,0.85,0
-7.87,16.54,-42.11,0.24,-0.53,0.84,0
-6.96,18.13,-42.11,0.25,-0.51,0.83,0
-5.37,20.69,-42.11,0.25,-0.52,0.84,0
-4.64,22.64,-42.72,0.24,-0.54,0.84,0
-4.88,23.62,-43.46,0.23,-0.56,0.85,0
-4.46,24.23,-44.01,0.22,-0.57,0.86,0
-4.15,26.49,-43.95,0.22,-0.60,0.87,0
-3.85,28.99,-42.66,0.22,-0.62,0.88,0
-3.48,30.88,-41.81,0.23,-0.62,0.89,0
-3.85,31.92,-41.81,0.24,-0.62,0.89,0
-3.78,32.47,-42.24,0.24,-0.61,0.89,0
-3.11,33.02,-42.42,0.26,-0.61,0.89,0
-1.22,33.63,-42.11,0.27,-0.60,0.90,0
0.49,34.18,-41.14,0.28,-0.61,0.90,0
3.05,34.36,-39.67,0.29,-0.62,0.90,0
3.05,33.75,-38.57,0.28,-0.64,0.91,0
2.81,33.51,-36.99,0.29,-0.66,0.91,0
1.28,31.31,-35.58,0.28,-0.67,0.91,0
1.40,29.60,-33.69,0.27,-0.67,0.91,0
2.38,29.05,-30.76,0.26,-0.66,0.91,0
3.11,28.81,-27.71,0.26,-0.65,0.88,0
4.27,28.14,-24.84,0.25,-0.64,0.87,0
4.09,26.86,-22.16,0.24,-0.63,0.88,0
2.44,24.41,-19.90,0.24,-0.62,0.87,0
1.34,23.25,-17.33,0.23,-0.61,0.87,0
1.46,22.77,-14.71,0.22,-0.60,0.87,0
2.20,21.42,-12.39,0.21,-0.58,0.85,0
1.77,20.39,-10.99,0.20,-0.57,0.84,0
0.18,20.02,-9.52,0.20,-0.57,0.85,0
0.06,19.71,-7.63,0.18,-0.55,0.84,0
0.85,18.92,-6.23,0.17,-0.52,0.81,0
1.40,18.74,-5.49,0.17,-0.50,0.80,0
2.01,18.37,-4.88,0.19,-0.49,0.78,0
2.87,16.85,-4.76,0.21,-0.48,0.75,0
3.60,15.20,-4.94,0.23,-0.49,0.74,0
4.09,13.31,-5.86,0.26,-0.50,0.74,0
3.72,11.35,-6.41,0.31,-0.52,0.74,0
2.44,8.00,-7.69,0.35,-0.54,0.75,0
-0.06,4.70,-9.09,0.39,-0.57,0.79,0
-2.44,1.77,-10.38,0.41,-0.58,0.81,0
-3.97,-0.98,-11.66,0.41,-0.61,0.84,0
-5.98,-2.44,-11.84,0.39,-0.64,0.84,0
-8.06,-3.54,-9.58,0.35,-0.68,0.84,0
-9.28,-4.21,-6.04,0.32,-0.71,0.84,0
-8.97,-5.13,-2.81,0.29,-0.70,0.81,0
-9.34,-6.10,0.37,0.27,-0.68,0.79,0
-9.46,-7.20,3.97,0.26,-0.65,0.76,0
-9.16,-8.67,7.51,0.25,-0.65,0.75,0
-7.75,-10.31,11.05,0.24,-0.64,0.74,0
-6.35,-11.84,14.77,0.25,-0.64,0.74,0
-4.39,-14.10,18.74,0.27,-0.64,0.72,0
-1.71,-17.15,21.91,0.28,-0.63,0.71,0
0.24,-20.20,23.93,0.29,-0.64,0.71,0
-0.06,-22.95,26.37,0.28,-0.66,0.71,0
-2.26,-25.76,29.66,0.28,-0.67,0.69,0
-5.37,-28.87,31.80,0.28,-0.68,0.69,0
-9.52,-32.23,33.02,0.27,-0.68,0.69,0
-13.24,-34.97,34.48,0.25,-0.68,0.68,0
-16.72,-37.17,35.77,0.24,-0.66,0.66,0
-17.70,-39.12,36.07,0.22,-0.63,0.65,0
-16.97,-40.16,35.34,0.20,-0.60,0.63,0
-15.69,-40.28,34.85,0.19,-0.57,0.63,0
-13.24,-39.73,34.67,0.18,-0.56,0.62,0
-9.89,-39.06,34.30,0.17,-0.56,0.62,0
-6.10,-37.78,33.94,0.16,-0.58,0.63,0
-2.81,-35.64,33.69,0.16,-0.61,0.65,0
-0.24,-34.12,33.57,0.15,-0.63,0.66,0
1.65,-33.02,33.20,0.15,-0.63,0.65,0
3.54,-32.10,32.71,0.14,-0.62,0.65,0
3.97,-30.46,31.92,0.14,-0.61,0.65,0
4.03,-29.66,31.19,0.14,-0.60,0.64,0
4.94,-29.30,30.70,0.13,-0.58,0.63,0
6.41,-28.75,29.66,0.13,-0.56,0.62,0
8.48,-28.75,28.08,0.13,-0.55,0.62,0
10.74,-29.24,26.37,0.13,-0.54,0.62,0
12.70,-29.30,24.48,0.14,-0.54,0.62,0
14.59,-29.54,22.22,0.15,-0.55,0.63,0
15.93,-30.52,20.02,0.15,-0.56,0.64,0
14.77,-32.04,17.70,0.14,-0.58,0.67,0
14.59,-32.84,14.83,0.13,-0.61,0.71,0
15.50,-33.51,12.08,0.13,-0.65,0.74,0
16.30,-34.48,10.38,0.13,-0.66,0.76,0
17.58,-35.40,8.67,0.14,-0.66,0.78,0
20.14,-36.01,6.84,0.14,-0.67,0.79,0
23.19,-36.56,5.13,0.13,-0.68,0.79,0
26.18,-37.23,3.85,0.12,-0.68,0.79,0
28.02,-37.54,3.23,0.11,-0.70,0.82,0
28.02,-37.17,3.54,0.08,-0.74,0.82,0
28.56,-36.56,4.33,0.06,-0.77,0.83,0
29.79,-35.22,5.13,0.05,-0.78,0.83,0
28.87,-34.18,6.23,0.05,-0.77,0.84,0
27.22,-32.84,7.87,0.05,-0.75,0.84,0
27.95,-30.94,9.46,0.06,-0.71,0.84,0
29.30,-28.81,10.31,0.07,-0.68,0.82,0
31.43,-26.18,11.60,0.08,-0.66,0.80,0
33.26,-23.86,12.94,0.10,-0.64,0.77,0
35.10,-22.16,13.67,0.11,-0.63,0.76,0
34.91,-21.06,14.04,0.12,-0.63,0.74,0
32.90,-20.45,14.53,0.12,-0.65,0.75,0
29.54,-19.78,15.08,0.11,-0.67,0.76,0
26.86,-18.86,15.75,0.09,-0.66,0.76,0
24.60,-18.43,15.69,0.08,-0.64,0.76,0
22.71,-16.85,15.56,0.07,-0.64,0.74,0
21.97,-15.01,15.69,0.07,-0.63,0.72,0
21.73,-13.49,15.26,0.07,-0.62,0.71,0
20.02,-11.90,14.59,0.07,-0.63,0.71,0
18.25,-9.58,14.83,0.06,-0.65,0.71,0
17.15,-7.81,14.83,0.06,-0.65,0.70,0
13.85,-6.16,14.65,0.08,-0.66,0.70,0
9.16,-3.97,14.71,0.09,-0.69,0.71,0
3.54,-2.56,15.20,0.09,-0.72,0.71,0
-1.65,-1.77,15.93,0.07,-0.72,0.72,0
-6.35,-0.43,16.42,0.05,-0.71,0.72,0
-9.95,1.04,16.66,0.05,-0.70,0.71,0
-12.39,2.87,16.54,0.05,-0.70,0.71,0
-13.79,5.13,16.17,0.04,-0.71,0.72,0
-13.98,7.26,15.14,0.04,-0.72,0.72,0
-13.37,9.09,12.82,0.04,-0.72,0.72,0
-12.51,10.62,9.70,0.05,-0.74,0.73,0
-12.57,12.21,6.16,0.05,-0.78,0.76,0
-13.24,14.16,2.75,0.05,-0.84,0.80,0
-14.95,16.11,-0.12,0.04,-0.90,0.85,0
-16.78,17.82,-2.20,0.03,-0.93,0.86,0
-16.72,19.17,-4.33,0.02,-0.91,0.85,0
-14.47,20.32,-6.41,0.01,-0.86,0.83,0
-10.13,21.48,-8.42,0.02,-0.80,0.81,0
-3.48,22.28,-10.68,0.02,-0.76,0.80,0
3.05,23.62,-12.88,0.02,-0.78,0.80,0
9.34,25.45,-13.85,0.01,-0.80,0.80,0
17.46,26.31,-14.40,0.01,-0.79,0.79,0
22.77,26.79,-15.08,0.03,-0.79,0.78,0
25.39,26.86,-15.14,0.04,-0.78,0.75,0
27.22,25.94,-14.89,0.05,-0.76,0.72,0
26.18,24.66,-14.83,0.07,-0.72,0.68,0
23.62,22.16,-14.59,0.08,-0.68,0.66,0
21.36,19.04,-14.22,0.09,-0.65,0.65,0
19.71,15.81,-14.04,0.10,-0.61,0.64,0
18.37,12.39,-14.40,0.11,-0.59,0.65,0
15.20,9.22,-14.65,0.10,-0.61,0.67,0
14.40,6.41,-13.92,0.10,-0.61,0.67,0
13.92,2.50,-14.47,0.10,-0.62,0.67,0
11.35,-1.40,-16.24,0.10,-0.65,0.69,0
6.59,-5.37,-17.64,0.09,-0.69,0.70,0
3.36,-10.19,-18.92,0.08,-0.69,0.71,0
0.92,-14.71,-21.24,0.08,-0.68,0.72,0
-2.93,-18.19,-23.80,0.08,-0.68,0.74,0
-4.88,-21.36,-25.57,0.07,-0.68,0.74,0
-4.46,-23.56,-26.73,0.06,-0.68,0.75,0
-5.74,-24.84,-28.38,0.05,-0.70,0.77,0
-6.04,-26.25,-29.11,0.03,-0.71,0.77,0
-5.55,-27.22,-30.15,0.02,-0.72,0.78,0
-5.19,-27.10,-31.74,0.03,-0.72,0.78,0
-5.43,-27.34,-32.90,0.03,-0.73,0.75,0
-4.94,-27.28,-33.63,0.02,-0.73,0.76,0
-5.19,-26.25,-34.00,0.01,-0.75,0.79,0
-4.82,-24.78,-33.81,0.01,-0.72,0.76,0
-3.54,-23.99,-33.81,0.01,-0.71,0.76,0
-0.18,-22.40,-34.06,0.01,-0.74,0.77,0
3.11,-20.87,-33.45,0.01,-0.75,0.75,0
4.52,-19.71,-31.80,0.02,-0.75,0.75,0
6.10,-18.13,-30.21,0.02,-0.74,0.77,0
8.54,-17.03,-29.11,0.03,-0.72,0.75,0
9.40,-16.48,-28.02,0.03,-0.72,0.72,0
9.77,-15.81,-26.43,0.03,-0.72,0.71,0
13.37,-15.87,-24.48,0.04,-0.72,0.69,0
16.85,-17.21,-22.64,0.02,-0.73,0.69,0
17.21,-16.66,-20.26,-0.02,-0.78,0.74,0
17.46,-12.82,-15.81,-0.02,-0.82,0.78,0
18.37,-11.29,-10.99,-0.01,-0.78,0.80,0
18.55,-12.15,-8.61,0.01,-0.74,0.80,0
18.86,-11.23,-7.93,0.02,-0.71,0.80,0
20.39,-10.38,-6.71,0.03,-0.68,0.77,0
21.30,-10.31,-5.19,0.04,-0.65,0.75,0
21.36,-9.83,-3.72,0.06,-0.64,0.74,0
21.91,-9.46,-2.14,0.06,-0.64,0.74,0
22.09,-9.34,-0.37,0.05,-0.64,0.76,0
23.19,-9.16,1.65,0.04,-0.63,0.77,0
21.85,-9.03,3.23,0.02,-0.65,0.77,0
15.81,-7.26,5.07,0.01,-0.71,0.80,0
9.77,-5.43,7.69,-0.00,-0.75,0.82,0
3.23,-4.09,10.13,-0.01,-0.76,0.84,0
-2.56,-3.42,11.90,-0.01,-0.72,0.84,0
-5.86,-2.50,13.00,-0.01,-0.67,0.84,0
-6.41,-1.53,13.18,-0.02,-0.63,0.82,0
-3.91,-0.43,13.43,-0.02,-0.60,0.79,0
-1.34,0.55,13.55,-0.02,-0.61,0.75,0
-0.55,1.65,13.98,-0.01,-0.65,0.74,0
-0.49,2.44,14.34,-0.01,-0.69,0.75,0
-2.26,3.23,14.77,-0.01,-0.71,0.78,0
-3.60,3.97,14.95,-0.02,-0.70,0.80,0
-4.03,4.27,14.53,-0.03,-0.68,0.80,0
-4.39,5.62,13.61,-0.03,-0.67,0.81,0
-3.85,7.32,13.12,-0.03,-0.68,0.77,0
-5.19,8.24,12.82,-0.03,-0.70,0.75,0
-8.73,9.52,12.88,-0.03,-0.72,0.74,0
-11.66,10.62,13.06,-0.04,-0.72,0.75,0
-13.06,10.99,12.82,-0.04,-0.68,0.75,0
-13.49,11.60,12.39,-0.04,-0.66,0.75,0
-12.21,12.57,11.72,-0.03,-0.66,0.74,0
-9.52,13.31,10.68,-0.03,-0.67,0.74,0
-8.91,13.92,9.95,-0.02,-0.71,0.75,0
-8.85,14.53,9.77,-0.02,-0.74,0.78,0
-10.19,15.56,9.70,-0.03,-0.77,0.82,0
-12.21,16.24,9.58,-0.04,-0.78,0.85,0
-13.49,17.21,9.09,-0.05,-0.79,0.89,0
-14.77,19.59,9.09,-0.05,-0.81,0.94,0
-13.61,22.03,9.83,-0.05,-0.81,0.96,0
-9.52,23.86,9.89,-0.04,-0.75,0.93,0
-1.16,22.83,8.91,-0.06,-0.67,0.84,0
0.85,23.19,7.69,-0.08,-0.66,0.79,0
-1.59,26.37,9.03,-0.07,-0.71,0.78,0
-2.69,28.44,11.17,-0.06,-0.73,0.78,0
-3.42,28.38,12.76,-0.06,-0.72,0.79,0
-4.03,28.81,13.79,-0.06,-0.70,0.79,0
-3.66,29.30,15.01,-0.04,-0.67,0.79,0
-2.01,29.30,15.44,-0.04,-0.64,0.79,0
-0.24,29.91,15.20,-0.02,-0.61,0.78,0
1.16,30.76,15.50,-0.01,-0.58,0.77,0
3.48,31.37,15.20,0.00,-0.56,0.75,0
4.46,30.82,14.53,0.02,-0.56,0.75,0
3.97,30.33,14.16,0.03,-0.57,0.74,0
5.43,29.42,13.85,0.03,-0.59,0.72,0
6.65,29.24,13.61,-0.09,-0.61,0.83,0
9.70,30.52,17.64,0.09,-0.58,0.64,0
-2.26,26.00,19.53,0.07,-0.62,0.73,0
-5.00,21.18,17.88,0.04,-0.62,0.71,0
-4.94,17.52,16.17,0.04,-0.63,0.69,0
-5.62,15.56,14.95,0.05,-0.60,0.73,0
-4.82,13.12,13.61,0.06,-0.60,0.75,0
-1.71,10.38,11.72,0.07,-0.59,0.79,0
3.54,7.81,8.73,0.06,-0.62,0.78,0
6.41,5.98,5.98,0.06,-0.65,0.81,0
8.79,4.21,3.85,0.05,-0.67,0.83,0
10.13,0.55,1.22,0.06,-0.61,0.83,0
15.75,-5.98,-1.53,0.01,-0.63,0.78,0
17.21,-10.07,-2.87,-0.02,-0.68,0.72,0
17.03,-9.46,-1.65,-0.03,-0.67,0.67,0
14.10,-5.80,1.10,-0.05,-0.67,0.68,0
8.73,-3.48,3.72,-0.04,-0.70,0.71,0
2.32,-2.08,5.62,-0.02,-0.73,0.72,0
-3.97,-2.75,6.35,0.00,-0.77,0.75,0
-8.67,-4.46,4.46,0.02,-0.76,0.77,0
-11.54,-3.97,2.75,0.03,-0.69,0.80,0
-13.12,-1.16,3.54,0.03,-0.66,0.82,0
-12.02,-1.22,1.65,0.03,-0.62,0.82,0
-7.75,-2.93,-2.14,0.00,-0.52,0.78,0
-4.03,-3.54,-2.44,-0.01,-0.48,0.71,0
-3.97,-1.77,1.40,-0.02,-0.48,0.67,0
-8.12,2.75,6.16,0.01,-0.49,0.64,0
-11.23,1.71,6.29,0.02,-0.51,0.58,0
-14.95,-0.73,2.08,0.06,-0.62,0.57,0
-25.21,-3.66,-2.38,0.10,-0.68,0.61,0
-37.11,-3.78,-3.97,0.12,-0.63,0.72,0
-41.50,-2.14,-5.86,0.13,-0.60,0.77,0
-38.15,0.12,-7.51,0.12,-0.64,0.82,0
-36.25,4.76,-7.20,0.12,-0.66,0.89,0
-34.06,7.93,-6.71,0.13,-0.65,0.87,0
-34.91,6.53,-6.96,0.12,-0.64,0.78,0
-38.51,4.88,-7.87,0.07,-0.59,0.77,0
-39.25,5.31,-10.56,0.04,-0.48,0.73,0
-38.57,4.21,-13.18,0.03,-0.44,0.69,0
-35.58,3.23,-15.56,0.03,-0.45,0.68,0
-33.57,3.17,-18.31,0.03,-0.52,0.72,0
-33.75,4.70,-19.78,0.02,-0.50,0.79,0
-31.43,1.83,-19.96,-0.02,-0.44,0.80,0
-34.00,-1.53,-19.04,-0.04,-0.47,0.84,0
-35.52,-2.56,-16.91,-0.03,-0.53,0.86,0
-41.75,-0.98,-14.16,0.00,-0.63,0.92,0
-49.87,2.93,-11.41,0.02,-0.69,1.03,0
-55.05,6.10,-9.89,0.04,-0.67,1.16,0
-43.64,6.10,-9.95,0.02,-0.54,1.17,0
-29.11,6.23,-9.28,0.04,-0.46,1.09,0
-13.24,8.12,-7.69,0.08,-0.41,1.00,0
3.91,7.75,-6.10,0.11,-0.37,0.83,0
17.09,5.00,-5.68,0.13,-0.38,0.70,0
18.68,2.50,-6.53,0.11,-0.50,0.67,0
8.91,1.40,-6.59,0.06,-0.52,0.78,0
10.93,-1.89,-6.96,0.01,-0.42,0.80,0
6.04,-4.94,-5.92,-0.01,-0.46,0.82,0
-4.03,-2.44,-4.09,-0.01,-0.62,0.92,0
-8.12,1.71,-2.75,-0.01,-0.68,1.02,0
-5.13,4.58,-1.22,-0.01,-0.68,1.01,0
4.52,5.80,0.43,0.03,-0.51,0.93,0
31.92,3.23,-1.10,0.07,-0.24,0.71,0
44.92,0.61,-3.97,0.08,-0.25,0.66,0
43.58,3.97,-4.58,0.05,-0.44,0.79,0
50.84,8.67,-2.14,-0.01,-0.57,0.89,0
53.59,12.63,2.50,-0.04,-0.64,0.91,0
56.03,17.82,7.51,-0.01,-0.63,0.88,0
60.12,22.64,10.99,0.02,-0.63,0.82,0
62.26,24.78,12.94,0.06,-0.63,0.75,0
61.65,25.09,14.10,0.09,-0.59,0.71,0
63.78,23.86,13.49,0.11,-0.57,0.65,0
60.85,20.14,11.29,0.12,-0.57,0.62,0
57.74,15.50,9.64,0.12,-0.57,0.63,0
59.51,12.02,10.50,0.13,-0.57,0.62,0
62.19,9.28,12.33,0.13,-0.60,0.59,0
62.01,5.68,12.94,0.14,-0.57,0.58,0
63.78,0.24,12.21,0.16,-0.57,0.54,0
60.55,-5.80,9.95,0.16,-0.54,0.52,0
54.57,-12.21,7.87,0.13,-0.57,0.49,0
48.83,-16.60,7.20,0.13,-0.62,0.51,0
37.84,-21.06,4.52,0.14,-0.67,0.50,0
33.08,-29.54,-0.24,0.16,-0.61,0.53,0
30.03,-38.82,-5.86,0.15,-0.61,0.56,0
20.08,-44.37,-10.93,0.12,-0.63,0.54,0
17.15,-51.57,-11.60,0.10,-0.68,0.54,0
13.37,-57.31,-11.78,0.07,-0.65,0.56,0
-17.03,-56.21,-15.69,0.02,-0.88,0.69,0
-21.67,-54.57,-14.59,-0.04,-0.92,0.77,0
-23.50,-53.71,-11.17,-0.10,-0.85,0.75,0
-49.44,-52.55,-9.46,-0.06,-0.89,0.93,0
-25.27,-55.97,-4.64,-0.02,-0.60,0.85,0
0.00,-67.75,-1.40,0.01,-0.43,0.65,0
-7.57,-65.98,-11.05,-0.08,-0.56,0.72,0
-31.19,-49.07,-10.93,-0.14,-0.88,0.84,0
-44.07,-33.69,-3.17,-0.17,-1.10,0.96,0
-47.18,-30.46,3.85,-0.16,-1.19,1.07,0
-59.39,-30.76,6.29,-0.17,-1.18,1.13,0
-71.90,-28.93,7.45,-0.17,-1.08,1.16,0
-76.54,-26.79,6.65,-0.15,-0.93,1.14,0
-72.81,-25.94,2.26,-0.08,-0.72,1.08,0
-54.75,-27.77,-1.95,-0.06,-0.50,0.95,0
-43.46,-30.94,-6.53,-0.07,-0.41,0.84,0
-39.73,-30.27,-9.77,-0.05,-0.36,0.80,0
-29.54,-26.31,-9.58,-0.08,-0.45,0.78,0
-21.48,-19.71,-5.98,-0.09,-0.49,0.83,0
-9.16,-13.55,-1.16,-0.13,-0.53,0.84,0
-3.72,-6.65,3.60,-0.11,-0.61,0.90,0
-0.06,-2.38,7.14,-0.10,-0.67,0.95,0
4.64,0.31,9.52,-0.09,-0.68,0.97,0
9.70,1.53,8.97,-0.07,-0.66,0.93,0
13.12,-0.61,6.41,-0.06,-0.64,0.90,0
10.19,-2.01,4.03,-0.05,-0.63,0.87,0
5.80,-2.32,2.93,-0.04,-0.61,0.85,0
2.69,-4.39,2.01,-0.03,-0.58,0.84,0
-3.23,-6.90,1.46,-0.04,-0.56,0.83,0
-7.57,-7.75,2.32,-0.04,-0.54,0.83,0
-10.31,-6.90,3.78,-0.06,-0.53,0.85,0
-10.44,-4.09,5.62,-0.07,-0.54,0.85,0
-8.67,-0.92,7.26,-0.06,-0.55,0.87,0
-6.10,2.26,7.51,-0.06,-0.58,0.88,0
-3.78,5.19,6.23,-0.05,-0.60,0.89,0
-1.77,6.71,4.21,-0.04,-0.60,0.88,0
-1.95,7.57,1.71,-0.04,-0.59,0.87,0
-3.17,8.91,0.31,-0.04,-0.59,0.86,0
-3.60,9.52,0.61,-0.02,-0.58,0.84,0
-4.76,8.79,0.24,-0.02,-0.58,0.82,0
-6.96,8.36,-0.12,-0.02,-0.58,0.80,0
-8.67,8.18,0.00,-0.01,-0.59,0.79,0
-10.07,7.81,-0.06,-0.01,-0.58,0.77,0
-11.41,7.26,-0.61,-0.02,-0.58,0.77,0
-11.78,7.45,-1.34,-0.02,-0.58,0.77,0
-11.54,7.75,-2.14,-0.03,-0.58,0.76,0
-11.17,7.93,-2.44,-0.04,-0.59,0.76,0
-10.01,8.42,-2.69,-0.04,-0.60,0.75,0
-10.01,8.24,-2.93,-0.05,-0.62,0.76,0
-11.11,9.03,-2.87,-0.06,-0.65,0.77,0
-11.54,8.97,-2.50,-0.07,-0.66,0.77,0
-12.08,8.18,-2.38,-0.07,-0.64,0.76,0
-12.39,6.53,-2.69,-0.06,-0.62,0.75,0
-11.72,4.58,-3.48,-0.06,-0.61,0.74,0
-11.41,3.17,-4.46,-0.07,-0.61,0.73,0
-10.13,2.38,-5.00,-0.07,-0.62,0.74,0
-10.13,1.65,-5.86,-0.08,-0.63,0.77,0
-10.99,1.28,-7.02,-0.08,-0.63,0.80,0
-11.78,0.98,-8.18,-0.09,-0.64,0.83,0
-13.73,1.59,-9.34,-0.11,-0.65,0.86,0
-14.16,2.75,-10.38,-0.11,-0.65,0.88,0
-13.18,3.66,-11.23,-0.12,-0.63,0.88,0
-13.06,3.97,-13.06,-0.11,-0.61,0.88,0
-14.04,4.39,-15.50,-0.10,-0.59,0.86,0
-13.98,3.97,-17.52,-0.10,-0.58,0.85,0
-13.24,3.54,-19.96,-0.11,-0.59,0.84,0
-14.22,3.91,-21.97,-0.10,-0.61,0.85,0
-14.71,4.88,-22.83,-0.10,-0.62,0.86,0
-14.16,5.00,-24.11,-0.09,-0.59,0.86,0
-13.37,4.76,-26.18,-0.09,-0.57,0.86,0
-12.70,5.07,-27.89,-0.08,-0.56,0.86,0
-11.41,5.43,-29.30,-0.08,-0.56,0.85,0
-9.64,5.86,-30.40,-0.06,-0.55,0.85,0
-7.87,6.47,-31.62,-0.06,-0.55,0.83,0
-7.14,6.59,-32.90,-0.05,-0.55,0.82,0
-8.06,6.29,-33.69,-0.04,-0.55,0.81,0
-8.00,5.49,-33.69,-0.04,-0.53,0.80,0
-6.41,5.07,-33.69,-0.02,-0.51,0.78,0
-4.03,2.99,-34.00,-0.01,-0.48,0.75,0
-4.03,0.24,-35.03,-0.02,-0.49,0.74,0
-3.36,-2.26,-35.40,-0.03,-0.51,0.73,0
-4.39,-4.09,-35.64,-0.03,-0.55,0.74,0
-4.94,-6.47,-35.83,-0.05,-0.56,0.75,0
-4.94,-8.42,-36.13,-0.07,-0.56,0.77,0
-5.13,-9.52,-36.25,-0.08,-0.55,0.79,0
-4.88,-11.66,-36.13,-0.10,-0.54,0.80,0
-5.68,-13.61,-36.25,-0.13,-0.53,0.80,0
-4.15,-15.50,-36.01,-0.13,-0.52,0.78,0
-2.44,-18.31,-35.83,-0.15,-0.50,0.75,0
-2.69,-20.08,-35.28,-0.15,-0.51,0.75,0
-1.40,-20.08,-34.36,-0.14,-0.53,0.75,0
-0.12,-20.45,-33.87,-0.13,-0.54,0.76,0
0.49,-22.46,-34.18,-0.12,-0.53,0.76,0
1.83,-24.72,-35.03,-0.11,-0.51,0.76,0
3.17,-26.43,-35.95,-0.11,-0.50,0.75,0
4.88,-28.44,-36.93,-0.10,-0.48,0.74,0
5.43,-30.46,-37.29,-0.11,-0.47,0.74,0
5.25,-31.86,-37.66,-0.10,-0.47,0.74,0
6.41,-33.51,-37.90,-0.10,-0.46,0.74,0
11.84,-36.56,-37.96,-0.10,-0.41,0.71,0
19.04,-41.08,-39.00,-0.11,-0.35,0.66,0
27.22,-45.35,-40.41,-0.11,-0.31,0.61,0
36.19,-48.83,-41.08,-0.12,-0.30,0.58,0
37.78,-48.28,-41.08,-0.13,-0.42,0.65,0
36.44,-42.11,-39.18,-0.13,-0.56,0.70,0
34.18,-38.51,-36.56,-0.13,-0.69,0.77,0
27.77,-37.84,-35.34,-0.13,-0.80,0.84,0
17.52,-39.25,-34.67,-0.14,-0.83,0.88,0
8.12,-42.30,-33.75,-0.14,-0.81,0.88,0
-0.61,-45.65,-33.14,-0.14,-0.76,0.87,0
-9.40,-48.83,-31.74,-0.13,-0.70,0.85,0
-15.63,-52.12,-30.21,-0.11,-0.63,0.81,0
-19.04,-55.42,-29.11,-0.11,-0.58,0.75,0
-19.53,-56.40,-27.71,-0.11,-0.55,0.73,0
-19.65,-56.70,-26.98,-0.10,-0.54,0.72,0
-15.44,-55.54,-26.25,-0.13,-0.57,0.76,0
-13.55,-51.39,-24.29,-0.15,-0.64,0.81,0
-10.86,-46.39,-21.06,-0.17,-0.68,0.85,0
-7.26,-44.74,-19.04,-0.19,-0.66,0.85,0
-3.36,-43.58,-18.07,-0.20,-0.62,0.84,0
-0.61,-40.89,-17.46,-0.20,-0.57,0.83,0
2.32,-39.55,-16.91,-0.20,-0.53,0.79,0
6.04,-40.04,-16.17,-0.20,-0.50,0.76,0
8.79,-40.83,-15.14,-0.21,-0.50,0.72,0
10.74,-40.89,-14.77,-0.23,-0.51,0.74,0
10.19,-37.11,-13.61,-0.26,-0.60,0.80,0
9.46,-33.20,-11.11,-0.30,-0.67,0.83,0
9.40,-32.71,-8.00,-0.31,-0.70,0.83,0
7.63,-34.36,-6.53,-0.33,-0.67,0.82,0
3.11,-35.10,-5.74,-0.34,-0.64,0.81,0
-0.43,-35.03,-4.58,-0.36,-0.61,0.79,0
-1.83,-34.85,-2.26,-0.37,-0.59,0.77,0
-1.28,-35.77,-0.06,-0.38,-0.59,0.75,0
0.55,-36.25,2.08,-0.40,-0.57,0.74,0
5.25,-36.38,3.42,-0.39,-0.52,0.72,0
10.19,-35.95,4.21,-0.40,-0.52,0.71,0
14.71,-35.22,5.98,-0.41,-0.54,0.73,0
18.68,-34.67,8.61,-0.44,-0.60,0.77,0
17.40,-32.04,11.72,-0.45,-0.66,0.81,0
17.64,-32.90,16.11,-0.47,-0.67,0.81,0
14.04,-36.56,19.53,-0.49,-0.68,0.76,0
7.26,-38.94,20.87,-0.47,-0.68,0.73,0
2.08,-43.58,18.86,-0.46,-0.61,0.68,0
-1.34,-46.63,16.11,-0.47,-0.56,0.64,0
-3.66,-47.12,16.36,-0.48,-0.53,0.63,0
-3.42,-47.67,17.76,-0.48,-0.54,0.63,0
-1.53,-49.38,18.55,-0.48,-0.53,0.63,0
2.75,-52.55,19.10,-0.49,-0.51,0.62,0
7.32,-55.97,20.39,-0.51,-0.50,0.61,0
10.44,-58.96,22.09,-0.50,-0.53,0.59,0
10.62,-60.30,20.63,-0.49,-0.53,0.60,0
11.54,-64.03,17.76,-0.54,-0.51,0.59,0
10.07,-68.18,17.52,-0.57,-0.47,0.58,0
4.76,-70.74,17.70,-0.56,-0.42,0.60,0
1.22,-72.27,15.69,-0.58,-0.46,0.55,0
-3.05,-73.91,12.45,-0.57,-0.42,0.60,0
-8.00,-74.83,6.59,-0.61,-0.43,0.65,0
-13.12,-75.20,3.85,-0.67,-0.49,0.64,0
-15.56,-74.22,3.60,-0.72,-0.57,0.64,0
-18.49,-73.30,2.87,-0.68,-0.54,0.66,0
-20.57,-72.51,-2.38,-0.76,-0.58,0.61,0
-22.71,-72.20,-5.43,-0.71,-0.50,0.59,0
-26.31,-70.43,-10.44,-0.70,-0.47,0.59,0
-25.51,-70.43,-15.26,-0.75,-0.47,0.57,0
-22.77,-70.80,-16.48,-0.80,-0.46,0.54,0
-22.46,-70.31,-14.71,-0.78,-0.48,0.51,0
-25.39,-69.21,-15.56,-0.73,-0.43,0.55,0
-24.41,-69.89,-19.71,-0.80,-0.46,0.52,0
-24.66,-70.43,-20.51,-0.79,-0.43,0.54,0
-26.73,-70.13,-21.79,-0.71,-0.43,0.52,0
-26.43,-71.78,-25.09,-0.79,-0.44,0.53,0
-23.74,-73.79,-25.70,-0.73,-0.46,0.44,0
-27.40,-73.67,-29.11,-0.66,-0.49,0.46,0
-30.03,-77.03,-38.27,-0.73,-0.48,0.46,0
-27.71,-82.95,-40.28,-0.79,-0.45,0.33,0
-31.86,-84.72,-37.17,-0.76,-0.44,0.41,0
-32.90,-86.73,-36.25,-0.79,-0.41,0.38,0
-32.29,-87.52,-37.54,-0.84,-0.41,0.40,0
-34.73,-89.11,-38.27,-0.84,-0.38,0.42,0
-36.68,-89.42,-39.31,-0.85,-0.35,0.43,0
-36.44,-88.01,-42.11,-0.90,-0.34,0.44,0
-34.42,-86.24,-44.01,-0.91,-0.36,0.43,0
-33.02,-83.80,-45.96,-0.91,-0.36,0.40,0
-30.27,-81.18,-47.06,-0.93,-0.36,0.39,0
-27.34,-78.55,-45.65,-0.94,-0.37,0.38,0
-24.96,-76.48,-43.27,-0.94,-0.40,0.36,0
-23.56,-75.32,-40.47,-0.94,-0.42,0.35,0
-23.56,-73.12,-38.21,-0.96,-0.40,0.35,0
-22.34,-70.37,-35.71,-0.98,-0.39,0.36,0
-22.28,-67.14,-33.20,-0.99,-0.37,0.38,0
-21.91,-63.35,-30.09,-1.00,-0.35,0.39,0
-19.53,-59.20,-26.86,-1.01,-0.32,0.39,0
-15.26,-53.89,-24.29,-1.02,-0.32,0.38,0
-10.38,-47.79,-21.73,-1.00,-0.31,0.38,0
-5.49,-41.56,-19.71,-1.00,-0.32,0.39,0
1.22,-36.01,-16.42,-0.99,-0.32,0.37,0
7.39,-30.58,-12.76,-1.00,-0.34,0.36,0
13.37,-24.84,-8.36,-0.98,-0.33,0.35,0
20.32,-18.25,-5.98,-0.97,-0.29,0.37,0
26.79,-12.39,-4.21,-0.97,-0.32,0.35,0
31.43,-8.97,-1.10,-0.96,-0.30,0.35,0
37.11,-4.39,1.40,-0.96,-0.28,0.36,0
42.60,-0.24,3.36,-0.87,-0.32,0.38,0
47.79,0.55,5.68,-0.94,-0.33,0.39,0
51.09,1.04,8.30,-0.94,-0.34,0.37,0
46.57,4.33,10.86,-0.90,-0.39,0.38,0
40.89,6.71,11.90,-0.88,-0.41,0.36,0
34.79,6.47,13.06,-0.88,-0.40,0.34,0
27.83,6.10,13.31,-0.87,-0.40,0.35,0
20.57,5.98,13.37,-0.85,-0.39,0.34,0
14.77,5.37,13.55,-0.85,-0.37,0.34,0
11.54,3.78,13.79,-0.84,-0.37,0.33,0
10.25,2.32,14.04,-0.83,-0.36,0.32,0
9.46,1.34,14.65,-0.83,-0.34,0.31,0
7.75,0.37,14.47,-0.83,-0.37,0.34,0
4.52,1.10,14.59,-0.86,-0.42,0.38,0
7.20,2.69,17.46,-0.91,-0.43,0.40,0
8.73,4.88,20.20,-0.92,-0.41,0.39,0
5.68,8.79,21.91,-0.90,-0.40,0.37,0
1.95,12.39,23.50,-0.89,-0.40,0.35,0
0.67,14.04,25.45,-0.89,-0.40,0.35,0
-0.92,15.50,26.79,-0.88,-0.41,0.33,0
-1.65,16.60,28.38,-0.88,-0.42,0.33,0
-1.89,17.76,29.97,-0.87,-0.43,0.33,0
-2.01,18.62,31.56,-0.86,-0.43,0.34,0
-1.95,18.43,32.17,-0.86,-0.44,0.34,0
-2.26,18.07,32.71,-0.86,-0.45,0.35,0
-3.36,18.37,33.57,-0.88,-0.48,0.38,0
-5.92,19.59,34.79,-0.91,-0.49,0.40,0
-7.87,21.30,36.44,-0.91,-0.49,0.40,0
-10.25,23.38,38.09,-0.90,-0.49,0.39,0
-13.37,24.72,39.18,-0.88,-0.48,0.37,0
-15.32,24.78,39.98,-0.88,-0.47,0.36,0
-17.09,24.96,40.71,-0.87,-0.47,0.35,0
-17.76,25.39,41.69,-0.87,-0.47,0.35,0
-16.60,25.82,42.91,-0.86,-0.46,0.35,0
-14.95,25.82,43.82,-0.85,-0.46,0.35,0
-12.76,25.45,43.88,-0.85,-0.45,0.36,0
-10.38,25.45,43.64,-0.85,-0.46,0.36,0
-9.09,25.57,43.64,-0.86,-0.49,0.37,0
-8.12,25.88,43.82,-0.86,-0.50,0.37,0
-8.12,25.88,43.33,-0.86,-0.49,0.37,0
-8.24,26.06,42.72,-0.85,-0.48,0.37,0
-8.79,26.06,42.18,-0.85,-0.47,0.35,0
-9.34,25.82,41.81,-0.84,-0.47,0.34,0
-10.07,25.45,41.02,-0.84,-0.47,0.33,0
-10.25,24.41,40.22,-0.84,-0.50,0.33,0
-11.11,23.01,39.73,-0.86,-0.54,0.35,0
-14.59,22.77,39.92,-0.88,-0.58,0.38,0
-19.29,24.11,39.79,-0.91,-0.60,0.40,0
-21.55,24.35,39.25,-0.93,-0.55,0.41,0
-22.34,24.66,37.72,-0.93,-0.49,0.40,0
-21.79,26.61,35.77,-0.94,-0.47,0.39,0
-19.04,28.20,35.52,-0.94,-0.45,0.38,0
-15.93,29.30,36.01,-0.93,-0.45,0.36,0
-13.37,30.76,35.89,-0.92,-0.47,0.34,0
-11.17,32.23,35.95,-0.92,-0.47,0.33,0
-9.03,35.03,35.77,-0.91,-0.45,0.33,0
-5.68,37.54,34.97,-0.92,-0.46,0.34,0
-5.07,39.49,34.30,-0.92,-0.50,0.37,0
-6.16,42.18,34.36,-0.93,-0.52,0.39,0
-4.33,45.35,35.28,-0.94,-0.53,0.39,0
-3.30,46.81,35.28,-0.92,-0.50,0.37,0
-3.30,46.45,34.00,-0.90,-0.49,0.35,0
-4.27,45.59,32.78,-0.90,-0.47,0.35,0
-6.16,46.57,31.86,-0.89,-0.46,0.35,0
-7.02,47.30,30.76,-0.88,-0.45,0.36,0
-6.29,46.45,28.99,-0.85,-0.41,0.37,0
-5.19,45.10,26.55,-0.84,-0.40,0.37,0
-3.91,44.56,23.93,-0.83,-0.41,0.37,0
-3.17,43.21,20.57,-0.81,-0.38,0.38,0
-1.89,41.02,16.42,-0.78,-0.36,0.38,0
-0.61,37.84,11.72,-0.78,-0.33,0.39,0
0.31,35.77,6.71,-0.78,-0.32,0.41,0
0.37,34.12,2.08,-0.78,-0.30,0.44,0
2.69,31.74,-1.28,-0.78,-0.27,0.44,0
6.96,28.50,-4.15,-0.76,-0.22,0.44,0
11.23,26.00,-7.26,-0.74,-0.22,0.43,0
13.12,23.44,-10.44,-0.72,-0.21,0.43,0
13.67,20.87,-13.79,-0.71,-0.21,0.44,0
14.83,18.25,-16.91,-0.71,-0.21,0.45,0
16.17,15.69,-19.71,-0.71,-0.23,0.46,0
16.42,12.57,-22.64,-0.72,-0.28,0.49,0
14.95,11.05,-24.11,-0.74,-0.32,0.51,0
14.65,10.68,-24.60,-0.75,-0.40,0.52,0
16.17,8.97,-24.29,-0.76,-0.41,0.52,0
15.14,7.63,-24.35,-0.74,-0.44,0.51,0
15.44,5.80,-25.02,-0.75,-0.45,0.49,0
17.88,3.42,-24.78,-0.74,-0.40,0.46,0
18.37,1.77,-26.79,-0.74,-0.42,0.43,0
23.07,-0.31,-26.18,-0.73,-0.39,0.43,0
28.32,-1.04,-24.66,-0.69,-0.36,0.42,0
32.96,1.16,-27.47,-0.68,-0.43,0.39,0
36.99,3.11,-31.56,-0.72,-0.50,0.41,0
39.61,5.62,-31.25,-0.73,-0.54,0.47,0
42.05,7.57,-33.02,-0.71,-0.57,0.48,0
45.17,6.71,-38.27,-0.72,-0.59,0.52,0
44.37,7.81,-43.58,-0.74,-0.63,0.52,0
41.50,10.62,-46.63,-0.73,-0.63,0.54,0
38.33,12.33,-48.34,-0.72,-0.62,0.55,0
32.53,12.15,-50.17,-0.72,-0.62,0.56,0
25.02,13.12,-50.48,-0.72,-0.64,0.57,0
18.98,15.01,-48.34,-0.74,-0.65,0.58,0
15.14,15.75,-45.10,-0.72,-0.64,0.60,0
13.31,15.63,-41.87,-0.70,-0.65,0.61,0
13.37,15.38,-38.45,-0.68,-0.66,0.62,0
12.82,15.38,-34.30,-0.67,-0.67,0.62,0
11.47,15.50,-30.33,-0.66,-0.67,0.62,0
9.83,15.87,-27.04,-0.65,-0.67,0.63,0
7.39,17.03,-23.62,-0.64,-0.67,0.64,0
5.25,18.74,-20.14,-0.65,-0.67,0.65,0
2.93,20.02,-16.48,-0.64,-0.67,0.64,0
0.18,21.61,-12.63,-0.62,-0.67,0.64,0
-4.09,23.93,-9.22,-0.62,-0.67,0.64,0
-8.30,26.49,-6.04,-0.60,-0.67,0.64,0
-12.57,28.14,-3.23,-0.59,-0.66,0.63,0
-15.75,28.50,-0.85,-0.57,-0.63,0.63,0
-18.92,29.85,1.28,-0.55,-0.63,0.62,0
-19.84,31.68,3.66,-0.54,-0.62,0.63,0
-19.96,33.08,5.86,-0.53,-0.62,0.63,0
-19.41,35.10,7.93,-0.52,-0.63,0.64,0
-19.71,37.84,10.01,-0.51,-0.64,0.65,0
-18.80,40.41,12.39,-0.51,-0.64,0.65,0
-16.91,42.30,14.59,-0.50,-0.63,0.65,0
-17.09,44.86,16.72,-0.49,-0.63,0.65,0
-16.85,46.94,18.80,-0.48,-0.62,0.64,0
-15.20,48.28,20.20,-0.46,-0.62,0.64,0
-15.08,49.56,21.48,-0.43,-0.63,0.64,0
-15.75,50.35,22.71,-0.43,-0.64,0.65,0
-16.91,51.33,23.01,-0.43,-0.66,0.67,0
-16.72,52.12,23.44,-0.43,-0.67,0.70,0
-17.09,52.98,23.44,-0.44,-0.69,0.74,0
-18.07,55.05,24.54,-0.45,-0.72,0.78,0
-18.19,56.52,26.73,-0.46,-0.72,0.80,0
-15.63,57.50,29.05,-0.46,-0.71,0.81,0
-14.89,58.65,31.07,-0.45,-0.70,0.82,0
-13.79,60.06,33.87,-0.44,-0.69,0.81,0
-11.90,60.18,36.99,-0.42,-0.67,0.79,0
-9.09,59.81,39.43,-0.40,-0.66,0.79,0
-7.57,59.75,42.05,-0.38,-0.66,0.78,0
-6.59,59.39,44.49,-0.36,-0.67,0.78,0
-5.55,58.17,46.88,-0.35,-0.67,0.78,0
-5.37,57.50,48.77,-0.34,-0.67,0.78,0
-7.32,58.04,50.54,-0.33,-0.70,0.79,0
-10.25,58.96,52.43,-0.32,-0.68,0.80,0
-12.51,56.88,54.02,-0.34,-0.69,0.77,0
-16.42,53.47,55.60,-0.32,-0.63,0.75,0
-21.73,50.72,56.95,-0.34,-0.61,0.75,0
-26.43,48.83,57.98,-0.30,-0.62,0.71,0
-30.40,47.18,57.62,-0.30,-0.60,0.70,0
-32.65,44.37,58.04,-0.33,-0.55,0.68,0
-35.10,40.59,58.65,-0.32,-0.50,0.68,0
-38.76,38.82,58.17,-0.31,-0.52,0.70,0
-38.64,37.29,58.41,-0.35,-0.49,0.69,0
-38.39,33.14,60.06,-0.37,-0.42,0.69,0
-40.28,28.99,61.34,-0.35,-0.37,0.70,0
-41.08,26.12,62.13,-0.34,-0.36,0.69,0
-41.44,23.38,62.56,-0.36,-0.34,0.69,0
-42.30,20.87,61.71,-0.36,-0.35,0.67,0
-41.26,18.01,62.19,-0.36,-0.35,0.67,0
-39.06,15.08,60.97,-0.33,-0.33,0.65,0
-38.45,12.39,58.59,-0.34,-0.35,0.67,0
-37.78,11.11,56.27,-0.36,-0.41,0.68,0
-36.25,8.91,54.08,-0.38,-0.45,0.67,0
-32.90,5.62,50.35,-0.36,-0.34,0.67,0
-27.59,2.93,45.96,-0.37,-0.41,0.68,0
-26.98,2.56,42.66,-0.39,-0.47,0.67,0
-25.57,0.92,40.53,-0.44,-0.40,0.75,0
-19.47,0.31,34.91,-0.36,-0.39,0.70,0
-15.50,0.24,27.53,-0.40,-0.47,0.72,0
-13.37,0.24,24.41,-0.40,-0.44,0.75,0
-7.81,0.79,20.57,-0.40,-0.44,0.74,0
-1.71,1.59,14.65,-0.41,-0.45,0.70,0
2.32,2.75,10.13,-0.41,-0.45,0.70,0
5.07,4.09,7.51,-0.42,-0.46,0.70,0
6.90,4.27,4.64,-0.39,-0.41,0.69,0
9.89,4.94,0.06,-0.39,-0.41,0.69,0
13.49,5.74,-3.66,-0.36,-0.41,0.67,0
16.48,6.35,-7.32,-0.36,-0.42,0.69,0
18.49,7.08,-10.68,-0.35,-0.45,0.69,0
21.18,7.14,-13.85,-0.36,-0.47,0.68,0
23.93,5.68,-16.54,-0.36,-0.46,0.68,0
24.90,5.19,-18.92,-0.35,-0.45,0.71,0
26.55,4.88,-21.55,-0.34,-0.45,0.70,0
28.26,4.58,-24.66,-0.35,-0.47,0.70,0
29.05,4.27,-26.92,-0.34,-0.46,0.70,0
29.85,3.48,-29.48,-0.33,-0.46,0.70,0
28.44,2.75,-32.35,-0.32,-0.47,0.70,0
28.20,1.77,-34.00,-0.33,-0.47,0.69,0
29.36,0.06,-36.07,-0.32,-0.46,0.70,0
28.32,-0.43,-38.45,-0.33,-0.50,0.72,0
26.92,0.49,-39.37,-0.34,-0.52,0.75,0
26.55,0.79,-39.73,-0.36,-0.56,0.76,0
25.15,0.92,-40.16,-0.36,-0.57,0.78,0
23.50,1.28,-40.22,-0.36,-0.59,0.79,0
20.94,2.08,-40.53,-0.36,-0.61,0.79,0
19.41,2.01,-40.71,-0.35,-0.60,0.79,0
17.76,1.28,-41.69,-0.35,-0.61,0.79,0
16.17,0.92,-42.60,-0.34,-0.62,0.80,0
15.69,0.06,-43.15,-0.34,-0.63,0.82,0
15.44,-1.28,-43.70,-0.35,-0.66,0.81,0
13.12,-2.75,-43.70,-0.34,-0.63,0.85,0
14.28,-3.60,-45.04,-0.34,-0.64,0.84,0
14.28,-4.15,-45.72,-0.34,-0.63,0.85,0
14.10,-4.76,-46.08,-0.34,-0.64,0.85,0
12.94,-4.94,-46.14,-0.34,-0.65,0.85,0
11.29,-5.07,-45.84,-0.35,-0.66,0.83,0
10.25,-5.74,-45.47,-0.35,-0.64,0.80,0
9.34,-6.71,-44.92,-0.34,-0.62,0.77,0
9.16,-7.45,-44.62,-0.33,-0.59,0.74,0
10.68,-7.39,-44.43,-0.32,-0.57,0.70,0
13.00,-7.14,-44.49,-0.30,-0.55,0.68,0
17.03,-7.39,-44.25,-0.29,-0.54,0.66,0
21.42,-7.57,-44.07,-0.28,-0.52,0.64,0
26.67,-8.36,-43.82,-0.26,-0.50,0.61,0
32.47,-9.40,-43.70,-0.24,-0.47,0.59,0
37.84,-11.05,-43.76,-0.23,-0.46,0.58,0
40.47,-11.90,-44.01,-0.22,-0.48,0.58,0
42.36,-13.00,-44.01,-0.22,-0.49,0.57,0
44.31,-15.50,-44.19,-0.22,-0.49,0.57,0
42.85,-17.76,-45.41,-0.22,-0.50,0.58,0
38.39,-20.20,-46.69,-0.23,-0.51,0.58,0
32.29,-23.50,-48.16,-0.24,-0.53,0.59,0
22.58,-26.55,-49.50,-0.25,-0.56,0.60,0
13.00,-30.64,-51.03,-0.27,-0.58,0.63,0
3.54,-34.24,-53.53,-0.30,-0.59,0.67,0
-6.41,-37.17,-56.21,-0.33,-0.60,0.69,0
-13.85,-40.77,-58.23,-0.36,-0.60,0.71,0
-23.01,-42.97,-60.36,-0.38,-0.62,0.77,0
-31.56,-43.33,-61.65,-0.42,-0.65,0.79,0
-33.75,-46.45,-62.62,-0.46,-0.63,0.79,0
-33.02,-49.56,-63.54,-0.48,-0.58,0.78,0
-31.62,-50.54,-63.84,-0.49,-0.56,0.75,0
-25.45,-51.21,-62.74,-0.50,-0.53,0.73,0
-18.01,-51.45,-61.46,-0.51,-0.53,0.73,0
-9.34,-51.33,-59.45,-0.52,-0.52,0.71,0
0.31,-51.27,-57.31,-0.53,-0.50,0.71,0
10.44,-51.09,-55.60,-0.52,-0.47,0.70,0
20.39,-51.39,-54.75,-0.52,-0.46,0.69,0
27.53,-51.64,-53.83,-0.53,-0.46,0.71,0
26.73,-49.87,-53.77,-0.57,-0.54,0.80,0
19.10,-46.08,-53.77,-0.61,-0.64,0.86,0
13.12,-47.49,-53.83,-0.65,-0.66,0.85,0
2.50,-50.11,-54.50,-0.64,-0.62,0.82,0
-8.42,-51.64,-54.44,-0.62,-0.53,0.77,0
-12.57,-53.04,-54.02,-0.61,-0.45,0.74,0
-10.38,-54.63,-52.19,-0.59,-0.39,0.66,0
-3.11,-58.47,-47.97,-0.59,-0.32,0.57,0
3.66,-61.83,-43.82,-0.58,-0.29,0.52,0
11.90,-63.29,-39.98,-0.59,-0.30,0.52,0
22.95,-64.58,-36.74,-0.61,-0.34,0.53,0
31.25,-66.89,-34.06,-0.64,-0.38,0.56,0
33.69,-69.34,-31.19,-0.67,-0.43,0.61,0
29.17,-70.62,-29.30,-0.70,-0.53,0.66,0
20.39,-74.04,-28.56,-0.74,-0.61,0.67,0
9.58,-78.86,-28.69,-0.78,-0.63,0.66,0
-2.87,-83.07,-29.42,-0.79,-0.60,0.64,0
-15.01,-86.73,-29.66,-0.79,-0.55,0.62,0
-25.02,-90.39,-29.05,-0.80,-0.49,0.59,0
-31.37,-93.63,-27.53,-0.82,-0.44,0.55,0
-33.39,-95.34,-25.70,-0.81,-0.41,0.54,0
-38.21,-97.35,-23.74,-0.83,-0.38,0.49,0
-37.90,-98.57,-21.42,-0.84,-0.37,0.48,0
-36.93,-100.52,-19.84,-0.86,-0.35,0.44,0
-34.12,-100.65,-17.82,-0.87,-0.36,0.45,0
-34.97,-100.28,-15.93,-0.90,-0.38,0.44,0
-36.07,-100.28,-13.92,-0.93,-0.40,0.45,0
-35.34,-100.83,-13.24,-0.93,-0.42,0.42,0
-37.60,-101.81,-13.18,-0.96,-0.43,0.42,0
-37.78,-101.26,-13.49,-0.97,-0.46,0.44,0
-42.18,-101.87,-13.73,-0.99,-0.45,0.42,0
-46.69,-101.81,-13.98,-1.01,-0.42,0.43,0
-50.72,-99.67,-14.28,-1.04,-0.38,0.40,0
-52.43,-96.07,-14.04,-1.05,-0.34,0.39,0
-53.16,-91.49,-13.61,-1.04,-0.30,0.37,0
-51.21,-86.18,-12.88,-1.03,-0.28,0.36,0
-46.75,-80.02,-11.29,-1.03,-0.25,0.33,0
-40.16,-73.12,-9.70,-1.02,-0.24,0.31,0
-32.41,-65.67,-7.93,-1.00,-0.26,0.30,0
-22.77,-59.02,-6.23,-1.00,-0.27,0.29,0
-15.20,-52.12,-4.64,-1.00,-0.27,0.29,0
-8.06,-44.13,-3.17,-1.00,-0.29,0.32,0
-4.03,-36.25,-2.26,-1.00,-0.28,0.33,0
-2.87,-29.05,-1.77,-1.01,-0.27,0.33,0
0.61,-22.22,-0.85,-1.01,-0.25,0.32,0
5.00,-15.56,-0.12,-1.01,-0.24,0.30,0
7.08,-9.64,1.10,-1.00,-0.25,0.29,0
11.17,-4.82,2.44,-1.00,-0.26,0.29,0
16.91,-0.55,3.54,-0.99,-0.29,0.30,0
16.66,3.72,4.03,-0.99,-0.31,0.28,0
19.59,7.26,3.78,-0.97,-0.31,0.28,0
20.57,9.03,2.93,-0.99,-0.31,0.29,0
15.01,11.66,3.48,-0.99,-0.32,0.28,0
12.33,13.61,4.82,-0.99,-0.33,0.29,0
6.04,14.65,5.55,-0.98,-0.36,0.29,0
-4.33,15.08,6.04,-0.97,-0.38,0.30,0
-13.85,13.73,6.23,-0.97,-0.37,0.32,0
-26.55,13.24,5.86,-0.96,-0.38,0.32,0
-41.50,12.82,5.92,-0.94,-0.40,0.32,0
-57.80,11.17,5.86,-0.91,-0.41,0.30,0
-69.89,6.96,5.00,-0.90,-0.38,0.30,0
-77.94,2.20,4.33,-0.89,-0.35,0.29,0
-82.58,-1.59,4.82,-0.88,-0.30,0.28,0
-84.66,-6.04,6.96,-0.86,-0.27,0.28,0
-84.59,-10.38,9.40,-0.85,-0.26,0.28,0
-83.13,-13.55,12.33,-0.85,-0.26,0.27,0
-81.54,-16.05,14.89,-0.85,-0.26,0.28,0
-80.63,-17.70,16.72,-0.86,-0.25,0.28,0
-79.90,-18.62,18.01,-0.87,-0.25,0.28,0
-78.61,-18.80,18.92,-0.89,-0.27,0.28,0
-77.70,-18.92,20.02,-0.90,-0.27,0.27,0
-75.62,-18.86,20.87,-0.90,-0.26,0.25,0
-74.04,-18.92,20.94,-0.90,-0.24,0.23,0
-72.08,-18.43,20.69,-0.89,-0.22,0.21,0
-69.03,-17.64,19.96,-0.89,-0.19,0.21,0
-64.70,-16.54,18.92,-0.89,-0.16,0.21,0
-59.45,-14.40,18.13,-0.89,-0.15,0.23,0
-53.89,-12.08,17.88,-0.89,-0.15,0.25,0
-49.38,-9.52,17.64,-0.89,-0.16,0.26,0
-44.80,-6.90,17.58,-0.89,-0.16,0.26,0
-40.71,-4.76,17.09,-0.89,-0.17,0.25,0
-37.41,-2.62,16.42,-0.89,-0.19,0.26,0
-33.94,0.18,16.42,-0.90,-0.22,0.27,0
-31.98,3.30,16.72,-0.90,-0.24,0.26,0
-31.37,5.68,17.21,-0.90,-0.26,0.26,0
-31.62,7.63,17.70,-0.91,-0.26,0.25,0
-30.82,9.46,18.07,-0.92,-0.26,0.25,0
-29.24,10.93,18.37,-0.92,-0.24,0.25,0
-25.82,12.33,18.74,-0.94,-0.25,0.22,0
-20.75,13.73,19.96,-0.96,-0.25,0.24,0
-18.13,15.69,21.06,-0.99,-0.26,0.24,0
-18.07,17.52,22.64,-1.02,-0.28,0.24,0
-16.54,19.59,24.41,-1.04,-0.31,0.24,0
-15.63,21.79,26.25,-1.04,-0.32,0.23,0
-16.72,23.68,28.02,-1.04,-0.33,0.22,0
-17.82,25.70,29.66,-1.03,-0.36,0.22,0
-19.84,26.92,31.92,-1.03,-0.36,0.23,0
-21.30,27.65,34.30,-1.03,-0.36,0.23,0
-22.52,28.26,36.32,-1.02,-0.35,0.23,0
-23.56,28.38,37.96,-1.02,-0.34,0.23,0
-23.68,29.05,39.86,-1.02,-0.32,0.25,0
-23.50,29.79,42.36,-1.02,-0.32,0.25,0
-25.63,31.98,45.23,-1.02,-0.34,0.28,0
-26.31,35.58,48.40,-1.04,-0.34,0.30,0
-25.15,40.04,51.45,-1.05,-0.33,0.32,0
-22.83,44.74,54.57,-1.04,-0.32,0.31,0
-20.87,49.56,57.98,-1.02,-0.32,0.28,0
-18.80,53.71,61.10,-0.98,-0.32,0.26,0
-16.60,57.43,63.17,-0.96,-0.32,0.23,0
-14.28,60.30,65.25,-0.93,-0.32,0.22,0
-11.54,62.19,66.59,-0.91,-0.32,0.21,0
-8.67,63.48,67.32,-0.89,-0.32,0.22,0
-5.00,64.21,68.12,-0.89,-0.31,0.26,0
-2.44,65.80,68.24,-0.91,-0.33,0.32,0
-2.75,69.27,68.73,-0.93,-0.37,0.36,0
-3.66,72.69,69.76,-0.94,-0.40,0.36,0
-6.47,75.38,70.56,-0.95,-0.40,0.37,0
-7.93,77.45,70.74,-0.94,-0.38,0.34,0
-8.91,78.80,70.37,-0.93,-0.35,0.32,0
-8.54,79.53,69.58,-0.91,-0.32,0.30,0
-6.47,79.35,68.48,-0.90,-0.29,0.27,0
-4.39,78.31,66.35,-0.95,-0.30,0.30,0
-3.97,77.45,60.91,-0.91,-0.31,0.32,0
-2.75,78.98,67.99,-0.93,-0.32,0.38,0
-0.98,85.69,63.60,-0.95,-0.43,0.41,0
-1.89,87.10,56.70,-0.94,-0.47,0.45,0
-2.44,86.06,56.52,-0.94,-0.42,0.43,0
-2.32,87.28,56.34,-0.94,-0.36,0.43,0
-2.32,88.38,51.76,-0.92,-0.37,0.45,0
-2.99,88.68,47.24,-0.91,-0.40,0.47,0
-0.12,88.62,45.53,-0.91,-0.40,0.48,0
2.93,88.99,43.52,-0.91,-0.40,0.50,0
3.91,89.66,40.41,-0.91,-0.43,0.54,0
4.64,90.52,37.66,-0.90,-0.46,0.57,0
7.32,89.72,35.28,-0.89,-0.44,0.56,0
7.93,88.26,32.65,-0.87,-0.43,0.56,0
7.26,87.77,29.36,-0.85,-0.44,0.57,0
8.06,87.34,26.79,-0.83,-0.45,0.55,0
8.48,86.61,24.60,-0.81,-0.45,0.55,0
9.40,85.63,21.73,-0.77,-0.45,0.56,0
10.56,84.66,18.92,-0.74,-0.44,0.58,0
12.39,84.53,17.03,-0.70,-0.45,0.60,0
14.89,84.35,15.56,-0.67,-0.45,0.62,0
19.04,84.23,14.40,-0.64,-0.44,0.63,0
21.24,84.23,12.57,-0.60,-0.46,0.66,0
22.03,84.35,11.11,-0.57,-0.48,0.66,0
23.50,82.52,10.13,-0.53,-0.47,0.64,0
23.74,79.41,8.24,-0.49,-0.44,0.61,0
22.77,76.42,5.68,-0.44,-0.42,0.58,0
21.42,73.55,3.23,-0.40,-0.42,0.57,0
20.08,70.37,0.79,-0.36,-0.42,0.56,0
18.25,66.59,-1.53,-0.34,-0.43,0.56,0
17.21,62.81,-3.36,-0.33,-0.44,0.56,0
16.78,58.84,-5.07,-0.33,-0.43,0.57,0
15.08,56.40,-7.51,-0.32,-0.46,0.59,0
14.10,54.75,-9.16,-0.32,-0.48,0.60,0
15.81,51.27,-10.19,-0.31,-0.48,0.60,0
17.03,47.00,-12.15,-0.29,-0.47,0.60,0
15.75,43.64,-14.53,-0.28,-0.48,0.62,0
16.05,40.16,-16.24,-0.27,-0.50,0.62,0
17.33,35.71,-17.94,-0.27,-0.51,0.63,0
16.17,30.94,-19.71,-0.27,-0.54,0.67,0
13.92,27.59,-21.30,-0.27,-0.56,0.69,0
13.73,22.64,-21.91,-0.28,-0.56,0.70,0
11.84,18.31,-22.71,-0.29,-0.58,0.72,0
9.40,15.50,-23.25,-0.29,-0.60,0.74,0
8.67,11.84,-22.58,-0.30,-0.59,0.73,0
9.09,8.36,-21.73,-0.30,-0.57,0.72,0
9.89,6.16,-20.94,-0.30,-0.56,0.72,0
11.66,4.21,-19.71,-0.29,-0.54,0.70,0
13.37,2.81,-17.64,-0.30,-0.56,0.71,0
14.34,1.89,-15.50,-0.31,-0.58,0.72,0
15.87,1.16,-12.88,-0.31,-0.60,0.74,0
17.21,0.12,-10.44,-0.32,-0.61,0.74,0
17.70,-0.92,-7.93,-0.33,-0.62,0.75,0
17.76,-1.28,-5.49,-0.32,-0.62,0.75,0
17.21,-1.34,-3.23,-0.31,-0.63,0.74,0
15.87,-2.26,-1.71,-0.30,-0.62,0.73,0
13.67,-2.99,-0.24,-0.29,-0.62,0.73,0
11.66,-3.23,1.40,-0.29,-0.62,0.73,0
10.62,-4.15,2.81,-0.29,-0.61,0.72,0
9.46,-4.94,4.09,-0.29,-0.60,0.73,0
8.42,-4.88,5.55,-0.30,-0.61,0.74,0
8.85,-5.13,7.14,-0.30,-0.60,0.74,0
9.28,-6.47,8.06,-0.30,-0.59,0.72,0
9.16,-7.75,8.36,-0.29,-0.58,0.71,0
9.34,-8.67,8.54,-0.29,-0.58,0.71,0
10.01,-9.64,8.73,-0.29,-0.58,0.71,0
11.47,-11.17,8.79,-0.29,-0.57,0.70,0
13.00,-12.76,8.48,-0.29,-0.57,0.69,0
13.79,-14.34,8.00,-0.29,-0.57,0.70,0
14.16,-15.63,6.90,-0.30,-0.58,0.72,0
14.04,-16.24,5.37,-0.33,-0.59,0.76,0
14.34,-16.17,4.27,-0.35,-0.60,0.77,0
14.83,-16.78,2.93,-0.38,-0.60,0.78,0
13.79,-16.85,1.04,-0.40,-0.62,0.79,0
12.45,-15.93,-0.92,-0.41,-0.64,0.80,0
12.02,-14.47,-2.32,-0.43,-0.64,0.80,0
12.94,-13.12,-3.23,-0.44,-0.62,0.79,0
13.73,-11.11,-4.03,-0.43,-0.62,0.79,0
14.83,-8.30,-4.39,-0.43,-0.63,0.78,0
16.78,-6.29,-4.52,-0.42,-0.62,0.77,0
17.94,-4.58,-4.58,-0.41,-0.61,0.75,0
18.31,-2.50,-4.46,-0.39,-0.60,0.73,0
18.55,-0.61,-4.39,-0.37,-0.60,0.72,0
18.68,0.61,-4.03,-0.36,-0.60,0.71,0
18.37,1.59,-3.60,-0.34,-0.59,0.71,0
17.15,2.69,-3.30,-0.33,-0.59,0.70,0
16.17,3.54,-3.17,-0.32,-0.59,0.69,0
14.77,3.78,-3.54,-0.31,-0.60,0.69,0
12.27,4.03,-3.78,-0.31,-0.60,0.68,0
9.95,4.46,-3.60,-0.31,-0.60,0.68,0
8.42,4.21,-3.66,-0.32,-0.60,0.67,0
6.96,4.70,-3.66,-0.32,-0.61,0.67,0
5.98,5.19,-3.42,-0.33,-0.62,0.67,0
5.43,5.49,-2.69,-0.33,-0.63,0.66,0
5.37,5.55,-2.20,-0.33,-0.63,0.64,0
4.82,5.13,-1.16,-0.32,-0.63,0.62,0
4.52,4.94,-0.24,-0.31,-0.64,0.62,0
4.15,4.58,0.43,-0.31,-0.67,0.63,0
3.23,3.36,0.67,-0.31,-0.71,0.66,0
0.37,1.53,0.79,-0.33,-0.74,0.68,0
-3.66,-0.18,0.55,-0.34,-0.76,0.71,0
-7.57,-2.20,0.24,-0.36,-0.77,0.74,0
-11.78,-3.60,-0.43,-0.38,-0.78,0.76,0
-15.32,-4.27,-0.85,-0.40,-0.80,0.78,0
-18.55,-4.39,-0.98,-0.42,-0.81,0.79,0
-22.03,-3.97,-0.98,-0.43,-0.81,0.79,0
-24.11,-3.11,-0.73,-0.43,-0.81,0.77,0
-24.84,-2.20,-0.12,-0.44,-0.80,0.76,0
-23.93,-0.55,0.67,-0.44,-0.78,0.75,0
-21.97,1.65,1.34,-0.43,-0.76,0.73,0
-19.47,4.09,2.01,-0.42,-0.74,0.72,0
-16.11,6.65,2.14,-0.41,-0.72,0.70,0
-12.57,9.09,2.08,-0.39,-0.70,0.69,0
-9.22,11.66,2.14,-0.38,-0.68,0.68,0
-5.98,14.22,1.89,-0.36,-0.67,0.67,0
-3.60,16.11,1.59,-0.35,-0.67,0.67,0
-2.62,17.46,1.16,-0.34,-0.66,0.67,0
-3.48,18.92,0.37,-0.33,-0.67,0.66,0
-5.25,19.84,0.06,-0.33,-0.66,0.65,0
-6.96,20.02,-0.43,-0.33,-0.64,0.63,0
-8.36,20.45,-1.10,-0.32,-0.61,0.62,0
-8.54,20.81,-1.22,-0.31,-0.59,0.60,0
-7.69,20.45,-1.10,-0.31,-0.58,0.58,0
-6.77,20.14,-1.53,-0.30,-0.57,0.58,0
-5.31,19.84,-1.53,-0.30,-0.57,0.58,0
-3.23,18.68,-1.16,-0.29,-0.57,0.58,0
-1.71,17.70,-1.28,-0.29,-0.58,0.59,0
-0.49,16.91,-1.22,-0.30,-0.59,0.60,0
-0.24,15.99,-0.92,-0.30,-0.60,0.61,0
-0.73,15.08,-0.79,-0.30,-0.60,0.63,0
-2.20,14.34,-0.79,-0.31,-0.61,0.64,0
-3.60,13.12,-1.04,-0.31,-0.61,0.65,0
-5.25,12.27,-1.04,-0.32,-0.61,0.66,0
-6.16,11.60,-1.16,-0.32,-0.61,0.66,0
-6.59,11.05,-1.22,-0.32,-0.60,0.66,0
-6.29,10.50,-1.28,-0.31,-0.60,0.66,0
-5.49,9.89,-1.34,-0.31,-0.60,0.66,0
-4.39,9.03,-1.46,-0.31,-0.61,0.67,0
-3.36,8.12,-1.89,-0.31,-0.62,0.68,0
-2.75,7.02,-2.26,-0.31,-0.64,0.70,0
-2.08,5.86,-2.75,-0.30,-0.66,0.72,0
-1.77,4.27,-3.66,-0.30,-0.67,0.75,0
-2.32,2.87,-4.64,-0.31,-0.68,0.77,0
-3.17,1.28,-5.98,-0.31,-0.69,0.79,0
-3.66,-0.61,-7.57,-0.32,-0.69,0.79,0
-3.85,-2.01,-9.03,-0.34,-0.70,0.81,0
-3.48,-2.75,-10.07,-0.35,-0.70,0.82,0
-3.05,-2.69,-10.44,-0.37,-0.71,0.83,0
-2.08,-1.65,-10.13,-0.38,-0.71,0.83,0
-0.92,-0.18,-9.70,-0.39,-0.71,0.82,0
1.04,1.40,-9.09,-0.39,-0.70,0.80,0
2.69,3.48,-8.06,-0.38,-0.68,0.78,0
4.76,5.25,-7.32,-0.37,-0.67,0.75,0
6.47,6.90,-6.29,-0.35,-0.66,0.74,0
7.81,8.42,-4.94,-0.34,-0.64,0.72,0
9.58,9.77,-4.09,-0.33,-0.62,0.72,0
11.17,10.80,-3.30,-0.32,-0.61,0.71,0
11.66,11.23,-2.81,-0.30,-0.59,0.71,0
11.84,11.54,-2.75,-0.30,-0.58,0.71,0
10.99,11.84,-2.56,-0.29,-0.58,0.71,0
10.01,11.60,-2.69,-0.29,-0.58,0.70,0
8.30,10.99,-3.11,-0.29,-0.57,0.69,0
6.23,10.50,-3.48,-0.30,-0.58,0.70,0
5.19,10.07,-3.66,-0.31,-0.57,0.70,0
4.27,9.28,-3.78,-0.32,-0.56,0.70,0
2.93,9.22,-3.97,-0.33,-0.56,0.71,0
2.20,8.73,-4.27,-0.34,-0.56,0.72,0
1.95,8.00,-4.33,-0.34,-0.57,0.72,0
1.65,7.08,-4.27,-0.35,-0.58,0.73,0
1.71,5.80,-4.33,-0.36,-0.59,0.73,0
1.40,4.64,-4.58,-0.37,-0.60,0.74,0
1.16,4.46,-4.39,-0.37,-0.61,0.74,0
0.79,3.54,-4.39,-0.37,-0.61,0.75,0
0.55,2.93,-4.39,-0.37,-0.60,0.75,0
0.37,2.62,-4.58,-0.37,-0.60,0.75,0
0.37,2.38,-5.00,-0.38,-0.59,0.75,0
0.79,2.81,-5.31,-0.38,-0.58,0.75,0
1.59,3.36,-5.49,-0.37,-0.57,0.74,0
2.26,3.72,-5.80,-0.36,-0.57,0.73,0
2.56,4.15,-5.92,-0.36,-0.58,0.73,0
2.87,4.58,-6.35,-0.35,-0.57,0.72,0
3.42,4.21,-6.71,-0.35,-0.56,0.71,0
3.85,3.97,-7.08,-0.34,-0.56,0.71,0
4.03,4.03,-7.69,-0.34,-0.57,0.71,0
4.09,3.54,-7.81,-0.34,-0.58,0.71,0
4.09,3.05,-8.06,-0.34,-0.59,0.72,0
3.91,2.56,-8.18,-0.35,-0.59,0.73,0
3.85,1.83,-8.30,-0.36,-0.59,0.73,0
3.42,1.40,-8.30,-0.36,-0.59,0.73,0
3.54,1.10,-8.06,-0.37,-0.59,0.73,0
3.85,0.55,-7.81,-0.37,-0.60,0.72,0
3.97,0.00,-7.26,-0.37,-0.60,0.72,0
4.39,-0.55,-6.59,-0.37,-0.60,0.72,0
4.76,-1.28,-5.86,-0.37,-0.60,0.72,0
5.19,-1.59,-4.94,-0.37,-0.60,0.72,0
5.43,-2.01,-4.03,-0.37,-0.60,0.73,0
5.13,-2.81,-2.99,-0.37,-0.61,0.74,0
4.52,-3.60,-2.08,-0.37,-0.60,0.74,0
3.54,-4.21,-0.98,-0.37,-0.60,0.74,0
2.32,-4.64,0.06,-0.37,-0.60,0.74,0
1.04,-4.88,1.28,-0.37,-0.60,0.74,0
-0.31,-5.43,2.50,-0.37,-0.60,0.74,0
-1.59,-5.98,3.54,-0.37,-0.60,0.74,0
-2.99,-6.59,4.46,-0.37,-0.60,0.73,0
-4.03,-7.39,5.43,-0.38,-0.60,0.73,0
-5.07,-7.87,6.04,-0.38,-0.60,0.74,0
-5.98,-8.24,7.08,-0.38,-0.61,0.74,0
-6.59,-8.42,7.75,-0.38,-0.60,0.75,0
-6.77,-8.54,8.36,-0.38,-0.59,0.74,0
-6.96,-8.30,8.97,-0.38,-0.59,0.73,0
-7.08,-8.00,9.28,-0.38,-0.58,0.73,0
-7.20,-7.51,9.46,-0.38,-0.58,0.72,0
-7.39,-6.47,9.70,-0.38,-0.58,0.72,0
-7.51,-5.86,10.01,-0.38,-0.59,0.71,0
-8.36,-5.07,10.19,-0.37,-0.58,0.72,0
-9.03,-4.21,10.44,-0.37,-0.58,0.71,0
-9.52,-3.72,10.31,-0.36,-0.56,0.69,0
-9.52,-3.11,10.62,-0.36,-0.55,0.68,0
-9.64,-2.38,10.62,-0.35,-0.55,0.67,0
-10.07,-1.65,10.31,-0.34,-0.56,0.68,0
-10.19,-1.40,10.07,-0.34,-0.58,0.68,0
-10.74,-1.22,10.07,-0.35,-0.58,0.69,0
-11.29,-1.28,9.95,-0.35,-0.59,0.69,0
-12.27,-0.85,9.77,-0.35,-0.60,0.71,0
-12.82,-0.79,9.46,-0.35,-0.63,0.72,0
-13.79,-0.73,9.22,-0.36,-0.64,0.73,0
-14.59,-0.55,8.79,-0.36,-0.65,0.74,0
-15.01,-0.73,8.12,-0.37,-0.65,0.75,0
-14.71,-1.04,7.08,-0.37,-0.65,0.75,0
-13.85,-1.28,6.23,-0.38,-0.65,0.76,0
-12.45,-1.59,5.25,-0.38,-0.65,0.76,0
-10.07,-1.77,4.46,-0.38,-0.66,0.77,0
-7.02,-2.20,3.36,-0.39,-0.67,0.77,0
-4.15,-2.81,2.01,-0.39,-0.67,0.78,0
-1.28,-2.87,0.37,-0.39,-0.66,0.78,0
1.95,-2.75,-0.73,-0.39,-0.66,0.79,0
4.70,-2.44,-1.71,-0.40,-0.67,0.79,0
6.77,-1.59,-2.26,-0.40,-0.69,0.81,0
8.54,-0.79,-2.26,-0.41,-0.70,0.81,0
9.52,0.24,-2.01,-0.42,-0.70,0.81,0
8.91,1.95,-1.65,-0.43,-0.70,0.82,0
8.36,4.15,-0.18,-0.43,-0.69,0.82,0
8.48,6.29,1.53,-0.43,-0.67,0.79,0
8.48,8.30,3.48,-0.41,-0.65,0.77,0
8.79,10.13,5.55,-0.39,-0.62,0.74,0
10.01,11.54,7.20,-0.38,-0.60,0.72,0
11.47,13.12,8.97,-0.36,-0.59,0.72,0
12.76,15.01,11.29,-0.35,-0.59,0.73,0
13.12,16.42,13.24,-0.35,-0.60,0.75,0
12.82,18.19,15.38,-0.35,-0.61,0.76,0
11.29,19.71,17.21,-0.35,-0.62,0.77,0
8.67,21.06,18.80,-0.34,-0.62,0.77,0
4.76,22.58,20.57,-0.34,-0.63,0.78,0
0.24,24.17,22.52,-0.35,-0.65,0.79,0
-2.62,25.15,24.66,-0.35,-0.65,0.78,0
-4.88,25.27,26.55,-0.34,-0.62,0.76,0
-5.62,25.51,28.08,-0.33,-0.59,0.74,0
-5.49,26.06,29.48,-0.31,-0.58,0.73,0
-4.64,27.16,31.37,-0.30,-0.60,0.74,0
-2.93,28.32,33.75,-0.30,-0.62,0.77,0
-2.14,30.15,36.13,-0.30,-0.65,0.81,0
-2.99,32.04,38.39,-0.30,-0.66,0.84,0
-3.78,33.26,40.47,-0.30,-0.65,0.87,0
-7.57,35.34,41.50,-0.29,-0.64,0.88,0
-9.89,37.41,42.72,-0.28,-0.63,0.88,0
-12.51,39.18,43.33,-0.27,-0.63,0.89,0
-16.17,41.14,43.27,-0.27,-0.66,0.92,0
-19.35,43.15,43.09,-0.27,-0.66,0.92,0
-19.41,42.91,42.91,-0.27,-0.64,0.93,0
-21.30,43.09,41.81,-0.27,-0.64,0.94,0
-21.67,45.10,41.14,-0.28,-0.64,0.95,0
-19.71,46.39,40.41,-0.27,-0.64,0.96,0
-17.52,46.81,39.12,-0.27,-0.62,0.96,0
-15.32,47.79,37.60,-0.26,-0.62,0.95,0
-13.12,49.38,36.19,-0.24,-0.60,0.95,0
-9.34,50.35,34.61,-0.23,-0.57,0.94,0
-6.35,52.12,33.39,-0.22,-0.57,0.94,0
-3.60,54.75,32.59,-0.23,-0.58,0.95,0
-3.17,58.29,32.53,-0.23,-0.60,0.96,0
-2.26,60.85,33.81,-0.24,-0.59,0.95,0
-1.89,62.93,34.67,-0.21,-0.57,0.92,0
-2.50,64.88,34.73,-0.19,-0.56,0.90,0
-2.93,66.83,35.34,-0.16,-0.55,0.85,0
-2.14,66.89,35.95,-0.13,-0.50,0.80,0
-3.11,67.44,35.40,-0.10,-0.49,0.78,0
-4.70,69.46,34.85,-0.09,-0.52,0.80,0
-3.36,70.62,34.85,-0.07,-0.52,0.81,0
-2.56,70.19,34.97,-0.06,-0.52,0.83,0
-5.25,71.96,35.16,-0.06,-0.56,0.88,0
0.06,74.16,35.16,-0.07,-0.52,0.89,0
9.09,75.68,34.18,-0.08,-0.51,0.90,0
12.51,80.57,34.30,-0.06,-0.54,0.92,0
17.15,85.57,36.13,-0.03,-0.59,0.91,0
22.03,88.50,37.72,0.01,-0.61,0.88,0
21.24,90.64,37.96,0.04,-0.66,0.86,0
12.82,93.08,38.45,0.06,-0.70,0.86,0
5.62,93.81,39.86,0.09,-0.69,0.81,0
-1.40,92.41,39.06,0.12,-0.66,0.77,0
-11.41,91.86,37.23,0.16,-0.62,0.77,0
-19.96,91.98,37.35,0.17,-0.58,0.75,0
-27.04,92.71,37.23,0.17,-0.58,0.76,0
-35.34,96.01,36.93,0.17,-0.62,0.81,0
-40.71,99.85,38.02,0.16,-0.64,0.83,0
-43.33,101.38,39.25,0.16,-0.63,0.85,0
-47.85,103.39,39.98,0.19,-0.62,0.86,0
-47.55,104.98,41.93,0.23,-0.57,0.83,0
-43.95,105.04,43.70,0.30,-0.53,0.79,0
-38.27,106.02,45.47,0.37,-0.51,0.75,0
-33.14,108.28,48.65,0.45,-0.54,0.77,0
-31.13,111.63,52.92,0.55,-0.60,0.78,0
-28.69,112.06,58.17,0.60,-0.64,0.77,0
-29.30,109.56,62.50,0.64,-0.68,0.77,0
-36.74,107.42,65.37,0.65,-0.73,0.80,0
-48.03,106.93,69.27,0.65,-0.78,0.84,0
-56.27,105.96,74.83,0.65,-0.74,0.84,0
-60.49,102.91,78.31,0.67,-0.67,0.81,0
-67.75,100.71,81.05,0.70,-0.64,0.82,0
-77.27,101.81,84.78,0.72,-0.61,0.81,0
-80.02,101.81,87.89,0.75,-0.56,0.79,0
-82.82,101.01,89.23,0.77,-0.54,0.76,0
-83.74,99.24,90.70,0.77,-0.51,0.71,0
-86.98,96.98,91.43,0.74,-0.50,0.71,0
-91.74,96.07,92.71,0.68,-0.50,0.70,0
-87.77,94.67,94.91,0.63,-0.42,0.67,0
-81.05,92.16,93.75,0.63,-0.40,0.63,0
-78.00,90.33,94.67,0.61,-0.34,0.62,0
-71.96,89.60,98.57,0.58,-0.27,0.60,0
-65.98,88.20,99.61,0.60,-0.20,0.56,0
-60.12,85.88,98.51,0.62,-0.17,0.53,0
-57.80,84.05,99.49,0.63,-0.15,0.53,0
-58.35,84.05,100.22,0.65,-0.16,0.52,0
-57.86,83.07,99.30,0.66,-0.14,0.50,0
-54.75,79.16,97.78,0.64,-0.10,0.47,0
-56.21,73.91,93.93,0.60,-0.08,0.46,0
-57.01,69.58,89.54,0.54,-0.05,0.43,0
-52.61,65.06,85.88,0.52,0.01,0.41,0
-44.37,61.71,82.70,0.55,0.05,0.41,0
-32.84,59.63,80.87,0.58,0.08,0.38,0
-19.17,58.04,78.86,0.59,0.06,0.38,0
-6.65,55.66,76.11,0.61,0.06,0.35,0
1.77,51.64,73.79,0.62,0.08,0.34,0
9.52,46.69,69.95,0.64,0.06,0.33,0
10.74,40.77,65.61,0.67,0.08,0.30,0
15.26,33.87,60.00,0.70,0.10,0.27,0
17.03,27.22,53.04,0.70,0.09,0.31,0
13.92,22.95,47.61,0.70,0.09,0.33,0
14.65,19.29,42.11,0.69,0.08,0.37,0
12.57,16.48,36.56,0.66,0.11,0.36,0
14.53,13.24,30.64,0.62,0.14,0.37,0
13.12,10.19,23.99,0.66,0.23,0.22,0
9.03,3.85,14.95,0.59,0.24,0.26,0
10.07,0.49,6.16,0.59,0.27,0.26,0
10.19,-0.79,-0.31,0.65,0.20,0.34,0
10.56,-1.40,-5.13,0.65,0.13,0.43,0
12.51,-0.67,-9.58,0.63,0.05,0.51,0
13.43,1.40,-12.88,0.66,-0.01,0.55,0
12.15,3.48,-15.56,0.70,-0.05,0.56,0
14.47,4.82,-17.64,0.71,-0.08,0.59,0
18.74,7.57,-18.31,0.71,-0.12,0.62,0
26.86,11.17,-16.91,0.73,-0.13,0.62,0
37.35,13.85,-14.59,0.76,-0.10,0.59,0
46.88,15.20,-13.18,0.78,-0.09,0.56,0
55.36,15.99,-11.66,0.81,-0.08,0.54,0
60.67,17.09,-10.19,0.82,-0.10,0.54,0
62.62,18.68,-8.12,0.82,-0.15,0.56,0
61.89,19.29,-5.07,0.83,-0.18,0.57,0
60.18,18.19,-2.99,0.84,-0.15,0.57,0
54.93,16.30,-2.50,0.83,-0.11,0.59,0
49.32,14.34,-2.75,0.81,-0.06,0.62,0
43.64,12.63,-2.69,0.80,-0.05,0.61,0
37.78,10.68,-1.83,0.81,-0.05,0.61,0
31.68,8.06,-1.16,0.83,-0.03,0.62,0
23.99,4.94,-0.98,0.85,0.01,0.62,0
16.36,0.98,-1.95,0.88,0.05,0.61,0
11.78,-2.44,-2.87,0.90,0.07,0.61,0
8.36,-4.46,-3.36,0.93,0.07,0.61,0
5.31,-5.68,-3.72,0.96,0.06,0.62,0
5.13,-6.96,-4.15,0.96,0.06,0.63,0
4.70,-7.69,-5.25,0.94,0.05,0.69,0
-0.24,-6.77,-6.16,0.93,0.03,0.74,0
-9.28,-3.91,-6.59,0.90,-0.00,0.80,0
-16.60,0.00,-6.35,0.87,-0.03,0.83,0
-21.61,4.33,-6.10,0.87,-0.04,0.82,0
-24.72,8.42,-5.92,0.88,-0.04,0.77,0
-26.37,10.86,-6.23,0.90,-0.04,0.69,0
-26.98,11.72,-6.71,0.92,-0.05,0.63,0
-28.69,12.45,-7.02,0.91,-0.06,0.58,0
-28.38,13.61,-6.10,0.90,-0.07,0.54,0
-25.21,14.04,-4.70,0.88,-0.09,0.51,0
-23.32,13.73,-3.60,0.86,-0.10,0.49,0
-20.81,12.57,-2.87,0.84,-0.12,0.49,0
-18.31,11.72,-1.89,0.83,-0.15,0.47,0
-15.26,11.05,-0.43,0.83,-0.15,0.45,0
-11.60,8.73,0.73,0.84,-0.12,0.39,0
-8.54,5.31,0.85,0.83,-0.11,0.37,0
-5.31,2.44,0.98,0.80,-0.13,0.37,0
-1.53,0.61,1.95,0.80,-0.12,0.37,0
2.20,-1.04,2.87,0.79,-0.15,0.39,0
5.80,-2.44,4.58,0.78,-0.16,0.41,0
10.74,-3.72,6.35,0.79,-0.16,0.41,0
14.89,-4.76,7.02,0.80,-0.17,0.42,0
18.19,-6.04,7.69,0.80,-0.16,0.41,0
21.36,-7.63,8.12,0.81,-0.14,0.41,0
23.44,-8.91,8.06,0.81,-0.14,0.40,0
25.21,-9.70,8.36,0.81,-0.14,0.41,0
27.34,-10.44,8.91,0.80,-0.13,0.43,0
28.93,-11.35,9.40,0.80,-0.13,0.46,0
29.66,-12.15,9.64,0.80,-0.13,0.48,0
30.09,-12.27,10.07,0.82,-0.12,0.50,0
30.21,-12.27,10.13,0.83,-0.10,0.53,0
31.49,-12.27,10.25,0.83,-0.08,0.55,0
32.29,-11.66,9.58,0.82,-0.04,0.60,0
30.58,-10.44,8.24,0.82,-0.01,0.64,0
27.16,-8.61,5.92,0.82,0.00,0.69,0
23.13,-6.53,3.30,0.81,0.01,0.73,0
16.91,-3.78,0.92,0.81,0.01,0.77,0
10.25,-0.67,-1.04,0.83,0.01,0.78,0
3.72,2.32,-2.69,0.86,0.02,0.78,0
-3.17,5.19,-3.97,0.89,0.01,0.77,0
-9.16,8.18,-4.58,0.91,-0.00,0.76,0
-14.22,10.38,-4.94,0.93,0.00,0.75,0
-17.88,11.66,-5.25,0.94,0.01,0.72,0
-18.74,12.21,-4.94,0.93,0.02,0.70,0
-16.54,10.01,-5.55,0.94,0.01,0.69,0
-16.54,8.06,-6.71,0.95,0.00,0.64,0
-16.85,7.45,-6.84,0.94,-0.00,0.59,0
-18.68,7.20,-5.62,0.91,-0.00,0.57,0
-20.75,7.14,-4.21,0.90,-0.04,0.57,0
-22.95,7.63,-2.69,0.88,-0.07,0.57,0
-21.30,7.75,-0.79,0.87,-0.08,0.57,0
-18.01,7.93,0.92,0.85,-0.10,0.57,0
-13.12,7.32,1.89,0.83,-0.09,0.53,0
-9.22,6.16,2.20,0.83,-0.09,0.49,0
-5.19,4.88,2.50,0.80,-0.09,0.48,0
-2.26,4.46,2.50,0.80,-0.10,0.45,0
-0.61,3.54,2.50,0.81,-0.10,0.43,0
0.85,1.71,2.56,0.79,-0.11,0.43,0
0.55,0.92,2.38,0.78,-0.14,0.43,0
1.28,0.43,2.50,0.79,-0.15,0.42,0
2.62,-0.85,2.81,0.79,-0.14,0.43,0
2.93,-1.83,3.23,0.79,-0.15,0.44,0
4.46,-2.56,3.97,0.79,-0.15,0.43,0
5.86,-3.42,4.33,0.79,-0.15,0.43,0
7.93,-4.15,4.46,0.78,-0.15,0.44,0
10.62,-5.00,4.76,0.77,-0.14,0.45,0
13.79,-5.55,5.19,0.76,-0.13,0.46,0
16.05,-5.86,5.49,0.76,-0.14,0.47,0
19.10,-6.16,6.16,0.77,-0.14,0.48,0
22.52,-6.65,6.77,0.78,-0.12,0.50,0
25.09,-7.75,7.14,0.79,-0.10,0.52,0
23.74,-9.83,7.26,0.80,-0.09,0.50,0
20.81,-12.63,6.65,0.81,-0.05,0.50,0
19.90,-15.26,5.19,0.79,-0.01,0.54,0
17.88,-15.69,2.81,0.77,0.00,0.56,0
14.53,-15.63,0.92,0.76,-0.00,0.57,0
11.11,-15.87,-1.40,0.75,-0.01,0.60,0
8.12,-15.38,-4.15,0.73,-0.02,0.63,0
4.21,-15.01,-7.02,0.69,-0.02,0.65,0
-1.04,-14.34,-10.86,0.66,-0.03,0.70,0
-7.75,-13.49,-15.38,0.64,-0.02,0.71,0
-12.70,-12.82,-20.81,0.62,0.02,0.73,0
-14.47,-12.02,-26.73,0.60,0.06,0.72,0
-14.28,-10.99,-33.26,0.59,0.07,0.70,0
-14.10,-9.77,-40.34,0.60,0.04,0.66,0
-14.71,-9.40,-47.91,0.61,0.02,0.62,0
-14.34,-10.68,-55.60,0.61,0.03,0.56,0
-14.71,-13.43,-63.60,0.62,0.02,0.53,0
-15.01,-16.36,-71.47,0.62,0.01,0.53,0
-14.77,-19.53,-79.04,0.60,0.00,0.51,0
-15.14,-23.44,-86.67,0.59,-0.01,0.50,0
-15.56,-27.28,-93.93,0.58,-0.03,0.48,0
-13.79,-31.56,-100.46,0.57,-0.05,0.48,0
-9.09,-36.01,-106.99,0.57,-0.07,0.47,0
-2.69,-40.41,-113.28,0.57,-0.09,0.45,0
3.72,-45.10,-119.26,0.57,-0.08,0.42,0
10.44,-50.54,-124.57,0.58,-0.05,0.38,0
17.64,-57.01,-130.80,0.59,-0.03,0.33,0
23.56,-63.90,-138.00,0.58,-0.04,0.31,0
27.22,-70.25,-144.78,0.57,-0.05,0.27,0
30.15,-77.39,-151.67,0.55,-0.06,0.23,0
34.55,-86.06,-156.31,0.52,-0.07,0.23,0
37.05,-94.79,-162.11,0.48,-0.12,0.29,0
26.25,-98.69,-167.36,0.41,-0.33,0.40,0
18.49,-99.61,-165.47,0.35,-0.46,0.46,0
22.64,-105.29,-162.48,0.35,-0.48,0.50,0
25.70,-111.88,-163.76,0.37,-0.49,0.56,0
22.40,-118.47,-165.83,0.39,-0.45,0.55,0
18.25,-124.21,-167.11,0.38,-0.35,0.52,0
16.17,-128.30,-169.37,0.37,-0.25,0.48,0
17.03,-130.49,-173.58,0.37,-0.21,0.47,0
18.98,-133.97,-177.06,0.35,-0.19,0.41,0
25.21,-140.81,-179.20,0.32,-0.22,0.43,0
1.71,-144.04,-178.53,0.22,-0.57,0.67,0
-30.70,-133.06,-169.31,0.13,-0.86,0.79,0
-29.17,-135.07,-156.56,0.06,-0.86,0.85,0
-35.83,-142.52,-154.48,0.07,-0.82,0.92,0
-50.60,-145.81,-156.37,0.08,-0.78,0.93,0
-55.97,-148.74,-155.82,0.08,-0.69,0.91,0
-55.54,-152.71,-156.07,0.09,-0.59,0.89,0
-48.34,-156.74,-157.96,0.09,-0.49,0.81,0
-31.80,-162.84,-157.65,0.09,-0.36,0.68,0
-15.56,-168.09,-156.98,0.04,-0.36,0.70,0
-16.05,-161.01,-154.24,-0.04,-0.63,0.88,0
-9.40,-147.16,-143.13,-0.13,-0.78,0.95,0
12.45,-144.65,-131.35,-0.21,-0.81,1.08,0
9.58,-135.74,-126.28,-0.24,-0.98,1.24,0
9.09,-124.27,-117.92,-0.27,-1.06,1.31,0
16.42,-122.07,-110.11,-0.27,-1.01,1.28,0
14.22,-121.46,-105.35,-0.24,-0.90,1.21,0
14.95,-121.70,-100.52,-0.21,-0.73,1.02,0
15.63,-124.39,-96.31,-0.19,-0.63,0.88,0
10.50,-123.60,-92.65,-0.19,-0.65,0.82,0
11.29,-122.13,-87.34,-0.20,-0.69,0.79,0
13.49,-122.31,-81.79,-0.23,-0.68,0.78,0
17.82,-123.05,-76.48,-0.27,-0.67,0.85,0
16.36,-116.88,-71.59,-0.30,-0.78,0.99,0
19.17,-108.70,-63.96,-0.35,-0.86,1.06,0
23.99,-108.64,-56.40,-0.40,-0.92,1.14,0
17.46,-106.02,-50.66,-0.43,-0.96,1.14,0
12.63,-104.80,-44.31,-0.45,-0.93,1.11,0
5.74,-102.72,-40.16,-0.43,-0.85,1.05,0
1.04,-101.56,-37.11,-0.41,-0.72,0.94,0
-2.56,-102.29,-35.10,-0.40,-0.61,0.82,0
-6.16,-101.32,-32.10,-0.39,-0.52,0.74,0
-7.08,-98.63,-28.69,-0.39,-0.51,0.70,0
-3.05,-96.98,-25.45,-0.39,-0.52,0.69,0
3.11,-96.98,-22.46,-0.42,-0.53,0.74,0
3.97,-91.25,-20.26,-0.48,-0.65,0.90,0
2.56,-81.30,-15.38,-0.55,-0.77,0.97,0
7.75,-78.92,-9.77,-0.61,-0.78,0.97,0
5.55,-79.22,-6.59,-0.61,-0.77,0.95,0
-3.42,-75.01,-3.97,-0.61,-0.74,0.94,0
-7.39,-69.76,-1.89,-0.60,-0.68,0.87,0
-8.48,-68.12,-0.31,-0.60,-0.59,0.77,0
-9.77,-68.24,2.14,-0.60,-0.53,0.70,0
-11.96,-65.86,5.55,-0.58,-0.54,0.67,0
-10.07,-62.01,8.85,-0.58,-0.58,0.69,0
-7.20,-58.65,11.66,-0.61,-0.65,0.75,0
-4.94,-54.08,15.32,-0.63,-0.71,0.79,0
-0.85,-51.15,19.47,-0.64,-0.72,0.82,0
2.20,-49.68,22.09,-0.65,-0.70,0.82,0
3.48,-47.30,24.17,-0.65,-0.70,0.83,0
2.14,-42.97,26.86,-0.66,-0.72,0.82,0
1.04,-38.82,29.72,-0.67,-0.72,0.81,0
-1.83,-35.89,32.47,-0.66,-0.71,0.77,0
-5.62,-32.90,35.95,-0.63,-0.70,0.71,0
-10.31,-31.56,40.16,-0.60,-0.68,0.66,0
-17.82,-30.03,43.82,-0.59,-0.69,0.66,0
-23.07,-26.61,47.36,-0.60,-0.74,0.69,0
-25.45,-24.66,50.78,-0.62,-0.76,0.72,0
-28.81,-24.54,53.96,-0.61,-0.75,0.73,0
-32.29,-24.78,56.15,-0.61,-0.72,0.71,0
-36.56,-24.90,58.90,-0.61,-0.70,0.71,0
-39.12,-23.32,61.65,-0.61,-0.69,0.69,0
-38.57,-22.03,64.70,-0.59,-0.65,0.65,0
-34.91,-21.42,66.10,-0.58,-0.63,0.62,0
-35.95,-20.39,68.12,-0.57,-0.62,0.62,0
-37.72,-18.62,71.47,-0.58,-0.64,0.61,0
-38.09,-18.49,75.20,-0.62,-0.64,0.64,0
-38.70,-21.18,78.55,-0.59,-0.63,0.60,0
-41.81,-22.89,79.65,-0.61,-0.64,0.61,0
-45.96,-22.89,82.03,-0.63,-0.69,0.59,0
-54.63,-21.24,81.73,-0.62,-0.73,0.61,0
-61.16,-21.12,78.92,-0.69,-0.72,0.65,0
-69.76,-23.68,76.60,-0.70,-0.68,0.64,0
-80.32,-25.51,74.10,-0.72,-0.55,0.67,0
-85.39,-25.94,72.45,-0.73,-0.47,0.64,0
-92.29,-27.59,70.62,-0.74,-0.39,0.64,0
-102.42,-27.77,69.27,-0.74,-0.36,0.62,0
-108.83,-28.08,69.70,-0.73,-0.32,0.59,0
-112.49,-27.95,67.69,-0.71,-0.32,0.57,0
-111.69,-26.55,64.58,-0.62,-0.29,0.54,0
-106.51,-26.86,59.02,-0.72,-0.29,0.51,0
-105.71,-25.02,54.63,-0.66,-0.26,0.51,0
-93.99,-22.28,50.42,-0.66,-0.23,0.49,0
-80.57,-23.32,47.18,-0.68,-0.24,0.48,0
-71.47,-22.95,44.01,-0.68,-0.23,0.50,0
-60.73,-22.77,38.45,-0.68,-0.23,0.52,0
-50.05,-22.89,32.78,-0.68,-0.22,0.55,0
-36.68,-21.79,27.28,-0.69,-0.25,0.56,0
-24.11,-19.41,21.61,-0.68,-0.27,0.59,0
-12.76,-17.46,16.30,-0.68,-0.32,0.58,0
-3.23,-16.42,10.74,-0.68,-0.30,0.59,0
4.64,-15.20,4.15,-0.66,-0.34,0.56,0
11.66,-14.40,-2.01,-0.69,-0.33,0.56,0
16.36,-12.39,-6.96,-0.68,-0.37,0.55,0
19.84,-10.62,-12.33,-0.66,-0.35,0.54,0
23.01,-9.28,-18.31,-0.66,-0.41,0.51,0
21.48,-7.14,-22.58,-0.67,-0.45,0.55,0
22.03,-4.76,-25.88,-0.69,-0.51,0.53,0
23.13,-3.48,-28.81,-0.69,-0.48,0.55,0
26.25,-1.71,-31.56,-0.68,-0.47,0.53,0
25.88,0.79,-34.36,-0.67,-0.46,0.54,0
26.67,3.30,-36.80,-0.67,-0.44,0.55,0
30.03,5.31,-39.92,-0.68,-0.44,0.56,0
32.71,7.51,-42.66,-0.69,-0.45,0.57,0
35.28,9.89,-44.56,-0.69,-0.45,0.59,0
37.96,13.12,-46.81,-0.69,-0.47,0.61,0
35.52,17.03,-49.32,-0.71,-0.51,0.65,0
31.62,20.20,-50.72,-0.72,-0.51,0.69,0
32.23,21.24,-52.19,-0.69,-0.51,0.64,0
31.62,19.29,-55.11,-0.69,-0.49,0.67,0
29.60,20.08,-58.96,-0.69,-0.55,0.66,0
26.18,22.77,-59.81,-0.71,-0.56,0.72,0
22.83,26.73,-59.94,-0.73,-0.53,0.76,0
16.72,29.97,-60.24,-0.73,-0.50,0.76,0
12.76,32.59,-61.65,-0.74,-0.48,0.73,0
18.19,32.04,-61.77,-0.77,-0.41,0.69,0
24.35,30.64,-62.68,-0.76,-0.38,0.69,0
27.40,33.69,-63.05,-0.70,-0.43,0.67,0
31.56,37.41,-61.22,-0.68,-0.53,0.67,0
34.79,40.41,-58.65,-0.68,-0.59,0.70,0
31.86,43.27,-56.15,-0.65,-0.60,0.69,0
27.22,41.20,-54.99,-0.64,-0.54,0.69,0
21.42,38.21,-55.42,-0.62,-0.50,0.68,0
15.69,35.40,-57.07,-0.62,-0.43,0.67,0
10.99,33.39,-58.78,-0.62,-0.35,0.66,0
8.91,31.56,-60.24,-0.61,-0.31,0.66,0
10.38,29.36,-60.36,-0.60,-0.32,0.63,0
12.02,27.65,-57.74,-0.58,-0.34,0.66,0
18.49,27.22,-55.24,-0.58,-0.31,0.63,0
19.41,25.45,-52.06,-0.57,-0.40,0.64,0
18.62,23.74,-47.42,-0.55,-0.43,0.64,0
16.24,23.07,-47.30,-0.57,-0.45,0.68,0
12.27,22.95,-46.02,-0.56,-0.47,0.70,0
10.62,19.71,-45.65,-0.59,-0.44,0.69,0
5.43,18.80,-44.86,-0.61,-0.42,0.70,0
2.01,18.55,-43.27,-0.62,-0.38,0.69,0
-1.16,17.52,-40.71,-0.62,-0.35,0.68,0
-1.59,16.48,-36.99,-0.60,-0.36,0.63,0
1.34,13.79,-32.84,-0.57,-0.39,0.59,0
4.88,11.35,-29.91,-0.56,-0.43,0.57,0
4.76,9.40,-27.40,-0.54,-0.47,0.56,0
3.97,6.35,-26.00,-0.56,-0.49,0.56,0
-2.81,3.60,-26.18,-0.58,-0.48,0.59,0
-11.90,1.77,-25.70,-0.62,-0.46,0.60,0
-22.22,0.98,-24.29,-0.66,-0.40,0.64,0
-33.02,0.73,-22.28,-0.68,-0.32,0.66,0
-38.70,1.28,-20.08,-0.67,-0.26,0.67,0
-34.61,2.20,-18.98,-0.67,-0.22,0.69,0
-27.40,4.33,-18.68,-0.67,-0.20,0.70,0
-18.01,5.07,-18.62,-0.64,-0.22,0.67,0
-8.48,4.88,-17.21,-0.63,-0.25,0.65,0
-4.64,5.37,-17.03,-0.63,-0.27,0.66,0
-7.39,6.65,-16.24,-0.62,-0.28,0.69,0
-8.36,6.96,-14.89,-0.62,-0.22,0.71,0
-7.08,5.62,-14.40,-0.62,-0.21,0.69,0
-6.04,7.69,-14.77,-0.62,-0.24,0.74,0
-2.93,10.68,-14.40,-0.62,-0.20,0.76,0
1.16,9.77,-12.82,-0.62,-0.22,0.74,0
5.49,11.23,-11.41,-0.62,-0.26,0.75,0
11.96,11.54,-8.97,-0.62,-0.24,0.69,0
11.41,10.99,-6.59,-0.61,-0.28,0.68,0
10.80,12.08,-4.46,-0.61,-0.29,0.70,0
7.39,14.53,-3.42,-0.60,-0.28,0.73,0
7.57,14.71,-1.77,-0.59,-0.29,0.72,0
7.69,14.59,-0.43,-0.60,-0.26,0.74,0
6.65,15.56,0.12,-0.60,-0.27,0.76,0
7.32,15.26,1.10,-0.58,-0.24,0.73,0
12.45,11.11,1.83,-0.55,-0.20,0.62,0
14.77,8.06,1.34,-0.55,-0.21,0.66,0
13.79,9.28,0.98,-0.58,-0.33,0.70,0
5.19,10.31,2.38,-0.60,-0.38,0.76,0
-1.28,10.13,4.21,-0.62,-0.38,0.80,0
-7.81,10.13,5.00,-0.62,-0.41,0.84,0
-8.12,10.01,6.59,-0.61,-0.34,0.80,0
-0.79,5.86,8.61,-0.57,-0.19,0.70,0
3.66,2.81,8.30,-0.54,-0.12,0.64,0
1.40,2.50,6.10,-0.56,-0.19,0.73,0
3.91,3.30,6.77,-0.63,-0.24,0.76,0
9.46,2.62,9.40,-0.64,-0.18,0.73,0
11.60,2.93,10.62,-0.53,-0.24,0.61,0
12.27,1.83,9.58,-0.64,-0.19,0.78,0
9.03,4.76,7.69,-0.65,-0.26,0.78,0
3.85,2.99,9.70,-0.65,-0.26,0.74,0
0.18,4.58,9.40,-0.67,-0.23,0.78,0
0.24,7.87,10.62,-0.69,-0.20,0.79,0
0.98,10.93,12.82,-0.66,-0.18,0.76,0
4.33,13.55,15.38,-0.60,-0.22,0.72,0
2.38,15.93,15.69,-0.57,-0.38,0.76,0
2.50,14.16,16.85,-0.59,-0.48,0.76,0
4.09,8.79,18.25,-0.60,-0.46,0.73,0
8.30,3.36,19.78,-0.61,-0.32,0.72,0
11.47,1.46,20.57,-0.62,-0.23,0.73,0
12.15,3.66,20.14,-0.64,-0.26,0.76,0
9.64,6.23,19.78,-0.67,-0.28,0.80,0
7.87,7.39,17.88,-0.68,-0.22,0.78,0
4.64,7.57,14.47,-0.66,-0.18,0.77,0
1.71,9.58,11.05,-0.65,-0.21,0.78,0
1.40,12.21,8.61,-0.68,-0.22,0.80,0
2.56,14.89,7.63,-0.68,-0.22,0.80,0
4.21,18.01,7.63,-0.68,-0.22,0.80,0
8.18,20.51,7.20,-0.66,-0.23,0.78,0
12.51,20.75,5.98,-0.62,-0.26,0.74,0
13.55,19.59,4.09,-0.61,-0.34,0.71,0
10.01,18.49,4.03,-0.59,-0.42,0.72,0
9.83,16.72,4.58,-0.62,-0.45,0.74,0
8.36,14.77,4.82,-0.64,-0.45,0.74,0
7.69,13.24,4.94,-0.64,-0.41,0.78,0
10.74,12.45,5.74,-0.64,-0.36,0.78,0
18.49,12.02,6.29,-0.62,-0.26,0.75,0
29.85,9.77,6.90,-0.61,-0.16,0.66,0
34.55,10.13,7.39,-0.58,-0.16,0.65,0
37.05,12.82,7.51,-0.58,-0.26,0.69,0
37.05,14.40,6.96,-0.61,-0.35,0.74,0
31.31,15.08,6.47,-0.64,-0.38,0.79,0
24.54,15.63,5.74,-0.65,-0.40,0.81,0
17.88,16.48,3.97,-0.64,-0.36,0.86,0
14.40,16.66,3.11,-0.65,-0.38,0.81,0
11.72,16.66,2.93,-0.62,-0.36,0.79,0
9.46,17.03,3.11,-0.59,-0.33,0.76,0
8.85,18.25,2.87,-0.57,-0.33,0.76,0
11.05,18.68,3.05,-0.57,-0.37,0.76,0
14.53,18.19,4.15,-0.57,-0.38,0.77,0
18.13,18.01,6.23,-0.57,-0.37,0.79,0
22.34,18.62,8.24,-0.57,-0.36,0.81,0
25.09,19.59,10.07,-0.57,-0.37,0.81,0
24.11,21.06,11.41,-0.58,-0.40,0.84,0
23.07,24.11,12.39,-0.59,-0.43,0.88,0
20.39,28.44,12.63,-0.61,-0.46,0.92,0
17.88,32.04,13.37,-0.62,-0.46,0.94,0
14.16,35.40,14.10,-0.61,-0.46,0.95,0
10.07,39.37,14.77,-0.60,-0.44,0.95,0
7.45,42.97,15.50,-0.58,-0.44,0.94,0
5.74,46.63,16.60,-0.55,-0.42,0.92,0
6.47,49.32,18.49,-0.51,-0.41,0.89,0
7.81,51.39,20.87,-0.47,-0.43,0.86,0
9.83,51.94,23.80,-0.44,-0.45,0.81,0
10.07,52.80,26.67,-0.42,-0.44,0.80,0
8.67,56.15,28.14,-0.42,-0.45,0.82,0
12.08,57.68,29.42,-0.42,-0.39,0.83,0
19.96,58.04,31.07,-0.42,-0.34,0.83,0
29.42,60.55,32.47,-0.42,-0.33,0.83,0
41.14,63.90,34.06,-0.40,-0.34,0.83,0
51.70,66.59,35.83,-0.38,-0.36,0.81,0
60.61,68.73,36.99,-0.36,-0.37,0.80,0
64.58,71.04,37.11,-0.35,-0.38,0.82,0
63.72,74.40,36.50,-0.35,-0.40,0.81,0
62.99,75.20,35.71,-0.34,-0.41,0.80,0
58.41,74.46,33.08,-0.31,-0.40,0.78,0
50.48,73.18,29.54,-0.28,-0.40,0.72,0
39.98,70.01,24.90,-0.26,-0.40,0.70,0
30.40,65.92,19.59,-0.25,-0.40,0.70,0
22.16,62.74,15.20,-0.25,-0.43,0.68,0
15.50,58.35,12.51,-0.24,-0.46,0.64,0
8.00,52.92,10.68,-0.22,-0.49,0.63,0
-1.22,48.46,9.16,-0.21,-0.49,0.63,0
-5.68,42.18,8.12,-0.21,-0.45,0.58,0
-12.57,35.58,7.08,-0.23,-0.43,0.58,0
-18.74,32.84,5.92,-0.23,-0.47,0.61,0
-21.06,29.60,5.19,-0.25,-0.50,0.63,0
-23.32,25.57,4.82,-0.26,-0.50,0.66,0
-26.06,22.52,5.37,-0.28,-0.51,0.69,0
-25.63,20.02,6.23,-0.28,-0.50,0.71,0
-23.50,17.15,6.35,-0.28,-0.50,0.72,0
-20.87,14.22,6.71,-0.28,-0.49,0.72,0
-17.76,11.47,6.96,-0.27,-0.48,0.72,0
-15.26,9.09,6.77,-0.26,-0.48,0.72,0
-13.24,6.96,6.41,-0.26,-0.49,0.72,0
-9.46,4.15,6.16,-0.26,-0.46,0.70,0
-4.52,-0.12,5.55,-0.25,-0.42,0.67,0
-1.53,-3.42,4.64,-0.25,-0.40,0.65,0
-0.85,-5.00,3.30,-0.25,-0.43,0.67,0
1.04,-6.77,2.50,-0.27,-0.45,0.66,0
2.32,-10.56,2.08,-0.29,-0.46,0.65,0
-0.79,-12.70,0.85,-0.30,-0.49,0.68,0
-4.64,-13.00,-0.55,-0.31,-0.53,0.71,0
-9.52,-14.40,-1.22,-0.34,-0.55,0.73,0
-15.08,-15.87,-1.53,-0.35,-0.54,0.76,0
-19.17,-17.15,-2.56,-0.36,-0.50,0.77,0
-20.69,-18.86,-4.76,-0.36,-0.45,0.76,0
-18.37,-21.61,-7.75,-0.36,-0.38,0.73,0
-13.92,-24.17,-11.47,-0.35,-0.33,0.70,0
-10.93,-24.90,-14.95,-0.35,-0.32,0.70,0
-6.04,-25.15,-18.13,-0.36,-0.37,0.72,0
-3.66,-24.48,-20.32,-0.38,-0.44,0.79,0
-3.11,-22.22,-21.30,-0.41,-0.48,0.83,0
0.24,-21.79,-21.79,-0.43,-0.45,0.84,0
1.77,-21.79,-23.32,-0.44,-0.42,0.84,0
2.14,-20.45,-26.06,-0.44,-0.39,0.84,0
5.00,-19.59,-28.69,-0.44,-0.37,0.82,0
7.08,-19.17,-31.01,-0.43,-0.34,0.81,0
8.12,-18.74,-33.33,-0.44,-0.36,0.81,0
10.31,-18.25,-35.52,-0.43,-0.35,0.83,0
14.77,-18.43,-37.66,-0.42,-0.37,0.83,0
18.92,-19.23,-39.79,-0.43,-0.38,0.84,0
20.75,-18.31,-41.93,-0.45,-0.41,0.86,0
23.01,-14.89,-43.46,-0.46,-0.44,0.89,0
24.48,-10.56,-45.29,-0.48,-0.49,0.90,0
23.44,-7.93,-46.39,-0.47,-0.50,0.89,0
20.39,-5.86,-47.06,-0.45,-0.50,0.87,0
16.85,-4.46,-49.38,-0.44,-0.50,0.86,0
14.34,-3.91,-51.45,-0.42,-0.49,0.84,0
12.21,-3.54,-52.61,-0.41,-0.50,0.82,0
9.40,-3.36,-52.67,-0.40,-0.50,0.82,0
6.35,-2.93,-52.00,-0.39,-0.51,0.82,0
4.70,-2.99,-51.21,-0.38,-0.52,0.83,0
3.30,-2.50,-50.54,-0.38,-0.54,0.85,0
3.23,-2.20,-49.44,-0.38,-0.56,0.86,0
2.38,-1.95,-48.16,-0.37,-0.54,0.88,0
2.38,-2.26,-46.88,-0.35,-0.54,0.88,0
3.30,-3.05,-45.90,-0.35,-0.54,0.87,0
2.08,-2.38,-44.43,-0.35,-0.57,0.87,0
-1.34,-1.46,-43.09,-0.34,-0.58,0.87,0
-3.36,-0.92,-41.44,-0.33,-0.57,0.86,0
-5.13,-0.85,-40.22,-0.32,-0.56,0.86,0
-6.96,-0.06,-39.12,-0.31,-0.56,0.88,0
-7.45,1.77,-37.35,-0.31,-0.57,0.90,0
-6.71,1.89,-35.03,-0.31,-0.59,0.91,0
-7.02,0.92,-31.74,-0.30,-0.58,0.91,0
-5.80,0.79,-28.50,-0.29,-0.58,0.90,0
-3.60,2.44,-25.57,-0.28,-0.57,0.90,0
-1.83,3.66,-23.44,-0.27,-0.57,0.90,0
-0.43,5.13,-21.73,-0.26,-0.56,0.90,0
-0.12,6.65,-19.23,-0.26,-0.56,0.89,0
0.55,8.42,-16.54,-0.24,-0.55,0.88,0
2.50,8.91,-14.04,-0.23,-0.54,0.86,0
2.08,10.31,-12.08,-0.22,-0.55,0.86,0
1.04,12.70,-10.07,-0.22,-0.56,0.87,0
2.26,14.10,-7.75,-0.22,-0.56,0.88,0
2.01,15.08,-5.80,-0.22,-0.55,0.88,0
1.28,17.03,-3.91,-0.22,-0.55,0.88,0
2.14,18.55,-2.14,-0.21,-0.53,0.87,0
2.81,19.84,-0.24,-0.20,-0.52,0.87,0
2.62,22.09,1.53,-0.19,-0.53,0.87,0
3.54,24.48,3.78,-0.20,-0.54,0.88,0
4.27,26.18,5.98,-0.20,-0.55,0.89,0
4.82,28.50,8.30,-0.20,-0.55,0.89,0
5.49,30.33,10.50,-0.20,-0.56,0.90,0
5.62,32.23,12.82,-0.20,-0.56,0.90,0
5.43,33.69,15.44,-0.20,-0.56,0.90,0
5.25,34.42,18.01,-0.21,-0.55,0.90,0
4.46,35.77,20.14,-0.21,-0.56,0.91,0
3.30,38.64,22.64,-0.22,-0.57,0.92,0
3.48,40.59,25.27,-0.22,-0.57,0.92,0
4.27,41.14,27.65,-0.20,-0.55,0.90,0
5.07,41.69,29.54,-0.19,-0.54,0.88,0
5.62,43.40,31.37,-0.19,-0.54,0.89,0
6.77,45.29,32.78,-0.18,-0.55,0.90,0
8.67,45.41,34.00,-0.18,-0.56,0.90,0
9.64,45.53,35.40,-0.18,-0.57,0.90,0
10.68,45.29,36.62,-0.17,-0.57,0.91,0
11.23,44.86,37.29,-0.17,-0.59,0.94,0
10.44,45.84,37.72,-0.18,-0.62,0.96,0
10.38,46.26,38.51,-0.20,-0.63,0.97,0
8.79,44.49,40.16,-0.18,-0.61,0.93,0
6.47,41.20,41.75,-0.18,-0.59,0.90,0
2.99,39.43,42.91,-0.17,-0.58,0.90,0
-0.37,39.98,44.19,-0.18,-0.60,0.91,0
-1.77,41.56,45.47,-0.19,-0.63,0.91,0
-2.50,42.79,47.30,-0.20,-0.63,0.92,0
-1.04,43.52,49.38,-0.18,-0.62,0.91,0
-0.55,40.77,52.73,-0.19,-0.61,0.89,0
-0.37,38.70,55.42,-0.18,-0.60,0.86,0
1.10,38.88,57.92,-0.17,-0.58,0.85,0
2.87,40.28,59.69,-0.16,-0.58,0.84,0
5.80,41.63,61.04,-0.15,-0.57,0.84,0
8.06,42.36,61.83,-0.14,-0.58,0.81,0
7.81,41.87,63.96,-0.13,-0.58,0.82,0
7.20,41.32,65.49,-0.12,-0.58,0.82,0
6.04,40.28,66.89,-0.10,-0.58,0.82,0
4.33,38.76,67.81,-0.10,-0.59,0.81,0
3.11,35.40,68.66,-0.09,-0.57,0.79,0
1.40,32.78,68.73,-0.08,-0.55,0.79,0
-0.18,30.82,68.18,-0.07,-0.56,0.79,0
-1.71,28.75,67.99,-0.07,-0.58,0.80,0
-2.87,25.70,68.36,-0.07,-0.58,0.80,0
-3.11,22.16,68.24,-0.06,-0.56,0.80,0
-2.62,18.74,67.14,-0.05,-0.56,0.80,0
-1.40,15.01,65.67,-0.05,-0.54,0.80,0
-0.55,11.41,64.21,-0.05,-0.54,0.80,0
-0.06,8.54,62.74,-0.05,-0.55,0.81,0
1.34,4.76,61.71,-0.05,-0.54,0.80,0
2.69,0.55,60.24,-0.05,-0.52,0.79,0
3.23,-2.75,58.53,-0.04,-0.51,0.78,0
3.54,-5.43,57.13,-0.05,-0.51,0.79,0
4.46,-7.57,56.15,-0.04,-0.51,0.79,0
5.43,-9.28,55.30,-0.04,-0.50,0.80,0
6.41,-11.90,53.96,-0.03,-0.49,0.79,0
6.90,-15.63,53.04,-0.03,-0.47,0.79,0
7.08,-18.31,52.31,-0.02,-0.45,0.81,0
8.36,-19.65,52.25,-0.03,-0.44,0.82,0
10.31,-21.24,52.43,-0.03,-0.43,0.82,0
10.80,-22.40,52.80,-0.03,-0.42,0.83,0
10.19,-23.32,52.86,-0.01,-0.43,0.83,0
9.09,-24.35,52.67,-0.01,-0.44,0.83,0
8.00,-26.73,51.94,-0.01,-0.41,0.81,0
6.65,-29.11,51.21,0.01,-0.39,0.81,0
4.82,-29.79,49.56,-0.00,-0.42,0.82,0
4.33,-30.58,48.95,-0.00,-0.40,0.82,0
3.54,-32.29,47.97,-0.01,-0.42,0.83,0
0.98,-32.04,46.69,-0.00,-0.44,0.85,0
0.00,-31.62,45.65,-0.01,-0.45,0.85,0
-2.08,-31.07,44.07,0.01,-0.45,0.87,0
-3.91,-31.07,41.93,0.00,-0.44,0.89,0
-4.76,-30.33,39.55,0.01,-0.45,0.89,0
-3.85,-30.21,37.96,0.02,-0.44,0.89,0
-3.23,-29.36,35.71,0.03,-0.44,0.89,0
-2.69,-28.02,33.51,0.03,-0.45,0.90,0
-1.40,-26.67,31.13,0.05,-0.46,0.89,0
-1.34,-26.31,28.69,0.05,-0.47,0.90,0
-0.79,-25.94,26.06,0.05,-0.47,0.90,0
0.31,-25.57,23.80,0.03,-0.49,0.89,0
0.73,-24.96,22.03,0.04,-0.50,0.89,0
0.85,-24.29,19.84,0.03,-0.51,0.88,0
1.95,-24.35,18.31,0.02,-0.51,0.87,0
3.23,-23.99,17.21,0.04,-0.53,0.87,0
4.33,-23.07,16.54,0.06,-0.54,0.87,0
4.39,-22.89,15.93,0.05,-0.55,0.88,0
5.13,-22.77,15.50,0.06,-0.56,0.89,0
5.55,-22.89,15.75,0.07,-0.57,0.90,0
5.25,-23.01,16.17,0.08,-0.57,0.90,0
4.70,-22.71,16.85,0.09,-0.57,0.91,0
3.78,-22.34,17.94,0.10,-0.58,0.90,0
2.50,-21.91,19.04,0.11,-0.57,0.90,0
-0.18,-21.06,20.45,0.12,-0.58,0.91,0
-2.81,-20.26,22.03,0.12,-0.59,0.92,0
-5.62,-19.47,23.99,0.12,-0.59,0.92,0
-8.06,-18.49,26.12,0.12,-0.59,0.93,0
-10.44,-17.03,28.38,0.12,-0.59,0.95,0
-12.63,-15.81,30.58,0.13,-0.58,0.95,0
-15.14,-14.40,32.41,0.11,-0.58,0.95,0
-17.40,-12.27,34.18,0.09,-0.59,0.96,0
-19.17,-9.64,36.01,0.08,-0.59,0.97,0
-20.69,-6.71,38.21,0.08,-0.59,0.97,0
-21.79,-4.15,40.47,0.08,-0.59,0.97,0
-23.44,-1.53,42.54,0.07,-0.59,0.97,0
-24.54,1.28,43.95,0.06,-0.59,0.97,0
-25.45,4.33,45.41,0.04,-0.59,0.98,0
-26.37,8.00,47.12,0.04,-0.59,0.98,0
-27.22,11.29,49.01,0.05,-0.59,0.98,0
-29.36,14.89,50.60,0.05,-0.60,0.98,0
-31.56,18.55,52.86,0.05,-0.60,0.97,0
-34.06,21.36,55.30,0.06,-0.55,0.95,0
-35.46,24.54,56.82,0.07,-0.53,0.93,0
-35.52,27.53,57.62,0.08,-0.53,0.92,0
-34.61,29.97,58.78,0.08,-0.51,0.90,0
-32.96,31.92,59.94,0.08,-0.50,0.88,0
-28.69,34.00,60.85,0.07,-0.47,0.87,0
-21.61,35.58,62.01,0.07,-0.44,0.86,0
-13.67,36.93,63.23,0.08,-0.44,0.84,0
-7.81,37.60,63.48,0.10,-0.47,0.84,0
-3.05,38.33,64.09,0.11,-0.50,0.85,0
-1.04,37.41,64.09,0.11,-0.53,0.85,0
-0.98,35.64,64.03,0.13,-0.54,0.84,0
-4.09,33.51,63.17,0.15,-0.54,0.84,0
-8.30,31.13,62.26,0.17,-0.54,0.84,0
-12.63,28.93,61.04,0.17,-0.53,0.86,0
-16.66,27.34,59.57,0.17,-0.51,0.86,0
-18.68,25.82,58.35,0.16,-0.49,0.85,0
-21.18,24.96,57.31,0.16,-0.49,0.85,0
-21.79,24.60,56.88,0.14,-0.48,0.86,0
-18.07,23.38,57.01,0.14,-0.44,0.83,0
-14.83,22.77,55.91,0.12,-0.42,0.83,0
-12.27,22.03,56.03,0.12,-0.41,0.83,0
-9.58,22.09,55.79,0.11,-0.42,0.82,0
-8.06,21.73,55.48,0.11,-0.42,0.83,0
-6.53,20.57,54.75,0.10,-0.40,0.83,0
-6.59,19.23,53.28,0.11,-0.39,0.83,0
-7.45,18.86,51.45,0.13,-0.39,0.84,0
-8.30,18.43,50.05,0.13,-0.38,0.85,0
-8.36,17.70,48.34,0.14,-0.36,0.84,0
-8.18,16.78,46.20,0.14,-0.34,0.83,0
-9.16,15.99,43.88,0.15,-0.34,0.83,0
-8.54,15.69,42.18,0.15,-0.33,0.83,0
-8.54,15.32,39.98,0.13,-0.35,0.85,0
-9.34,15.81,38.51,0.13,-0.36,0.87,0
-8.61,15.75,37.23,0.12,-0.37,0.87,0
-7.57,15.20,35.95,0.12,-0.34,0.87,0
-4.64,13.92,34.12,0.14,-0.34,0.84,0
-3.05,12.76,32.10,0.16,-0.32,0.83,0
-0.92,12.15,30.40,0.18,-0.31,0.85,0
3.91,11.35,28.44,0.18,-0.33,0.84,0
7.08,10.01,26.92,0.17,-0.35,0.86,0
8.00,9.83,26.12,0.19,-0.36,0.87,0
9.83,8.61,24.90,0.19,-0.38,0.89,0
9.95,6.77,23.62,0.20,-0.38,0.90,0
12.27,5.68,22.22,0.21,-0.36,0.90,0
13.73,4.39,20.39,0.22,-0.36,0.91,0
14.22,3.60,19.71,0.22,-0.35,0.91,0
20.20,1.77,19.84,0.23,-0.32,0.89,0
25.94,0.55,19.35,0.26,-0.32,0.87,0
30.64,-0.31,19.59,0.26,-0.34,0.88,0
34.42,-1.34,21.12,0.27,-0.36,0.89,0
37.48,-3.17,22.77,0.28,-0.38,0.90,0
37.60,-5.43,24.11,0.30,-0.38,0.92,0
33.02,-6.77,24.41,0.30,-0.40,0.95,0
27.04,-8.24,25.09,0.31,-0.43,0.95,0
21.00,-10.56,26.18,0.31,-0.37,0.96,0
14.47,-11.47,25.76,0.32,-0.36,0.95,0
5.49,-11.66,24.78,0.31,-0.36,0.98,0
-1.16,-11.60,24.48,0.32,-0.35,0.96,0
-2.08,-12.33,23.25,0.35,-0.30,0.95,0
-0.98,-13.37,22.03,0.39,-0.27,0.94,0
-1.16,-13.49,20.69,0.41,-0.26,0.93,0
-0.37,-13.61,20.14,0.41,-0.26,0.93,0
-0.43,-13.37,18.62,0.40,-0.28,0.93,0
-2.08,-13.49,17.82,0.37,-0.28,0.93,0
-4.46,-13.61,18.01,0.34,-0.29,0.91,0
-9.28,-13.06,17.21,0.30,-0.30,0.90,0
-12.21,-13.37,16.66,0.27,-0.29,0.87,0
-13.79,-14.77,15.99,0.26,-0.29,0.84,0
-15.93,-16.42,15.32,0.25,-0.29,0.84,0
-16.78,-18.43,14.40,0.23,-0.29,0.85,0
-16.72,-19.53,13.18,0.20,-0.30,0.86,0
-13.24,-21.00,11.72,0.18,-0.29,0.86,0
-9.58,-22.58,9.52,0.16,-0.29,0.84,0
-7.20,-23.68,7.20,0.09,-0.36,0.86,0
-1.16,-24.66,2.44,0.14,-0.31,0.81,0
13.92,-23.62,-1.46,0.14,-0.33,0.82,0
21.91,-31.13,-4.64,0.08,-0.35,0.77,0
26.06,-39.18,-11.29,0.16,-0.31,0.71,0
24.35,-36.56,-13.67,0.13,-0.26,0.74,0
24.78,-33.75,-17.15,0.08,-0.31,0.74,0
29.97,-30.58,-22.34,0.13,-0.39,0.78,0
31.68,-32.35,-23.32,0.12,-0.38,0.78,0
32.47,-31.92,-24.66,0.06,-0.35,0.77,0
27.04,-28.99,-26.49,0.08,-0.33,0.81,0
25.09,-28.50,-26.43,0.06,-0.28,0.83,0
26.31,-25.94,-24.17,0.05,-0.25,0.83,0
30.94,-23.62,-26.86,0.02,-0.36,0.90,0
29.48,-27.95,-39.12,0.08,-0.30,0.81,0
35.64,-30.03,-39.55,0.10,-0.34,0.86,0
36.44,-33.39,-41.93,0.06,-0.30,0.84,0
37.72,-31.92,-44.19,0.02,-0.25,0.84,0
37.78,-24.48,-44.01,-0.02,-0.27,0.88,0
38.64,-14.28,-41.44,-0.05,-0.21,0.86,0
39.49,-7.26,-39.92,0.03,-0.29,0.85,0
31.07,-11.84,-51.57,0.05,-0.36,0.90,0
25.27,-20.69,-66.96,0.05,-0.34,0.87,0
20.02,-23.93,-77.27,0.02,-0.34,0.84,0
13.49,-24.41,-80.26,-0.01,-0.40,0.86,0
12.94,-26.86,-77.82,-0.01,-0.28,0.87,0
13.00,-26.61,-80.75,-0.00,-0.33,0.89,0
16.91,-21.85,-78.06,-0.04,-0.25,0.80,0
16.72,-2.99,-70.43,-0.01,-0.41,1.05,0
0.73,-16.11,-88.20,0.05,-0.64,0.99,0
-7.20,-28.69,-99.18,0.06,-0.68,1.01,0
-19.41,-28.69,-92.83,0.01,-0.66,1.06,0
-36.19,-26.55,-84.84,-0.00,-0.63,1.13,0
-54.26,-22.28,-78.74,0.10,-0.82,1.06,0
-75.62,-20.94,-71.90,0.14,-0.84,1.12,0
-96.86,-20.63,-65.31,0.12,-0.73,1.13,0
-108.89,-23.93,-58.96,0.11,-0.46,1.12,0
-98.94,-24.23,-58.11,0.12,-0.26,1.02,0
-68.79,-16.72,-60.06,0.19,-0.14,0.19,0
1.16,39.79,-52.98,-0.05,-0.12,1.70,0
3.54,21.18,-50.35,-0.01,-0.10,0.90,0
13.18,-17.15,-61.46,-0.04,-0.17,0.83,0
26.86,-19.59,-62.81,-0.02,-0.07,0.86,0
46.14,-17.94,-63.66,0.04,-0.15,0.76,0
52.37,-21.36,-65.73,-0.05,-0.14,0.80,0
54.20,-21.36,-63.66,-0.12,-0.06,0.79,0
47.24,-24.05,-66.59,0.14,-0.13,0.79,0
57.56,-29.05,-77.70,0.02,-0.26,0.79,0
50.48,-26.18,-87.28,-0.03,-0.42,0.77,0
9.77,-19.29,-82.70,-0.18,-0.44,0.71,0
-30.03,-2.50,-68.91,-0.32,-0.36,0.96,0
-45.04,5.25,-62.50,-0.15,-0.32,0.97,0
-44.80,-4.52,-59.08,0.03,-0.34,1.00,0
-33.20,-19.29,-61.77,0.11,-0.25,0.90,0
-28.99,-31.74,-71.78,0.08,-0.16,0.82,0
-28.50,-37.66,-80.93,-0.02,-0.10,0.82,0
-21.85,-37.72,-84.23,-0.12,-0.13,0.79,0
-17.88,-39.00,-83.31,-0.15,-0.14,0.84,0
-20.26,-40.22,-84.59,-0.05,-0.70,1.39,0
-26.49,-80.99,-128.72,-0.22,-0.67,0.92,0
9.09,-96.56,-131.53,-0.41,-0.47,1.12,0
13.73,-67.08,-118.96,-0.38,-0.43,1.04,0
7.26,-33.75,-114.32,-0.34,-0.53,1.11,0
6.23,-5.68,-113.40,-0.35,-0.48,1.12,0
-9.03,15.01,-95.03,-0.37,-0.40,1.09,0
-15.32,25.02,-84.41,-0.33,-0.35,1.00,0
-17.70,25.21,-84.05,-0.31,-0.37,0.92,0
-17.15,23.01,-88.81,-0.31,-0.54,0.89,0
-18.13,17.64,-92.41,-0.31,-0.29,0.86,0
-24.17,9.40,-89.29,-0.27,-0.23,0.84,0
-14.22,4.21,-90.03,-0.22,-0.24,0.87,0
-2.32,7.63,-94.60,-0.21,-0.24,0.87,0
6.71,15.63,-97.05,-0.32,-0.32,0.94,0
2.87,25.76,-90.82,-0.43,-0.39,1.03,0
3.23,34.61,-79.16,-0.48,-0.31,1.12,0
21.55,42.05,-69.34,-0.50,-0.44,1.00,0
24.35,45.35,-59.69,-0.41,-0.44,0.96,0
26.49,45.72,-47.36,-0.27,-0.40,0.91,0
26.43,46.26,-32.90,-0.25,-0.27,0.91,0
28.26,45.59,-23.25,-0.16,-0.29,0.91,0
40.83,41.87,-21.30,-0.14,-0.53,0.95,0
52.37,38.15,-8.85,-0.13,-0.31,0.94,0
57.56,33.87,-3.30,-0.17,-0.37,0.91,0
73.55,27.71,2.93,-0.18,-0.34,0.93,0
96.98,20.69,6.84,-0.18,-0.32,1.00,0
115.60,16.60,8.61,-0.18,-0.33,0.94,0
124.51,11.54,13.37,-0.15,-0.27,0.95,0
118.04,11.29,11.41,-0.19,-0.39,0.93,0
103.45,10.01,7.63,-0.17,-0.43,0.90,0
109.86,5.00,2.87,-0.15,-0.47,0.90,0
106.57,3.11,0.24,-0.18,-0.53,0.83,0
91.06,1.40,-2.99,-0.16,-0.50,0.86,0
82.15,0.49,-5.07,-0.14,-0.51,0.81,0
65.61,-2.50,-7.69,-0.17,-0.51,0.89,0
61.22,-2.20,-12.39,-0.20,-0.50,0.94,0
70.01,-2.75,-15.81,-0.17,-0.48,0.83,0
65.25,-4.46,-17.15,-0.17,-0.51,0.89,0
50.96,-3.11,-18.86,-0.19,-0.57,0.88,0
44.07,-3.54,-19.35,-0.19,-0.56,0.88,0
31.49,-5.74,-20.69,-0.18,-0.62,0.86,0
14.77,-8.48,-17.15,-0.17,-0.56,0.89,0
10.62,-9.58,-15.08,-0.17,-0.55,0.88,0
12.76,-10.38,-14.47,-0.17,-0.56,0.88,0
12.82,-13.37,-12.88,-0.17,-0.56,0.85,0
6.59,-17.70,-7.69,-0.15,-0.54,0.90,0
4.39,-17.46,-4.21,-0.18,-0.52,0.89,0
5.13,-16.54,-3.05,-0.18,-0.51,0.86,0
8.06,-16.78,-2.08,-0.17,-0.48,0.87,0
18.55,-16.30,-2.69,-0.18,-0.50,0.87,0
19.23,-16.05,-0.79,-0.19,-0.53,0.84,0
12.70,-18.92,3.23,-0.17,-0.53,0.85,0
12.02,-20.45,5.98,-0.12,-0.59,0.86,0
7.81,-22.64,10.74,-0.18,-0.57,0.87,0
11.78,-22.58,11.90,-0.20,-0.50,0.78,0
27.04,-26.49,8.97,-0.21,-0.61,0.84,0
24.17,-27.65,9.46,-0.19,-0.57,0.84,0
5.62,-30.03,13.24,-0.18,-0.54,0.89,0
1.71,-29.17,12.70,-0.21,-0.59,0.81,0
-5.68,-29.36,12.88,-0.19,-0.56,0.86,0
-11.66,-28.44,12.27,-0.18,-0.54,0.83,0
-11.11,-27.83,10.19,-0.18,-0.59,0.82,0
-28.63,-28.14,12.33,-0.18,-0.53,0.80,0
-35.52,-28.50,11.72,-0.17,-0.48,0.82,0
-40.59,-27.47,13.00,-0.17,-0.49,0.80,0
-51.51,-26.00,15.01,-0.21,-0.44,0.79,0
-67.57,-22.71,17.82,-0.28,-0.43,0.80,0
-70.98,-17.15,18.01,-0.40,-0.42,0.84,0
-64.76,-6.41,16.85,-0.40,-0.43,0.79,0
-61.34,3.48,21.18,-0.43,-0.37,0.84,0
-48.16,9.34,23.62,-0.38,-0.44,0.86,0
-34.73,11.29,25.02,-0.40,-0.49,0.83,0
-36.68,11.54,26.06,-0.21,-0.54,0.84,0
-43.95,11.17,35.64,-0.28,-0.21,0.66,0
-54.75,5.68,35.22,-0.25,-0.43,0.85,0
-41.56,3.11,26.86,-0.30,-0.46,0.82,0
-34.06,3.05,27.89,-0.20,-0.49,0.79,0
-27.59,-0.37,26.37,-0.14,-0.55,0.82,0
-26.25,-5.62,23.99,-0.15,-0.49,0.86,0
-30.94,-10.25,22.28,-0.23,-0.48,0.89,0
-30.09,-12.02,22.16,-0.21,-0.50,0.84,0
-28.75,-11.78,22.58,-0.28,-0.49,0.86,0
-21.18,-7.14,27.47,-0.26,-0.50,0.88,0
-17.94,-4.15,32.84,-0.29,-0.50,0.87,0
-14.59,-1.89,37.41,-0.32,-0.48,0.88,0
-7.26,0.12,41.63,-0.30,-0.48,0.86,0
-0.31,0.00,44.37,-0.30,-0.44,0.90,0
-3.91,-2.50,47.24,-0.27,-0.48,0.87,0
-13.67,-3.54,47.18,-0.23,-0.43,0.87,0
-11.66,-3.30,45.17,-0.19,-0.41,0.90,0
-4.52,-5.07,43.52,-0.15,-0.39,0.93,0
-5.92,-5.98,43.46,-0.08,-0.39,0.87,0
-17.58,-4.88,42.24,-0.21,-0.40,0.86,0
-17.15,-4.52,40.83,-0.26,-0.45,0.82,0
-15.01,-4.27,39.00,-0.19,-0.37,0.80,0
-16.72,-4.64,36.93,-0.21,-0.38,0.82,0
-14.34,-6.23,34.79,-0.26,-0.38,0.84,0
-18.49,-7.39,32.59,-0.28,-0.45,0.88,0
-22.77,-8.18,34.42,-0.29,-0.45,0.91,0
-21.55,-9.22,36.07,-0.28,-0.41,0.93,0
-22.09,-10.56,36.13,-0.31,-0.50,0.94,0
-25.33,-15.56,37.41,-0.24,-0.46,0.91,0
-38.02,-19.10,37.60,-0.19,-0.44,0.96,0
-40.59,-21.79,36.32,-0.22,-0.40,0.91,0
-43.33,-22.77,29.17,-0.29,-0.37,0.86,0
-47.73,-24.72,23.13,-0.18,-0.42,0.82,0
-52.19,-27.89,20.26,-0.19,-0.38,0.85,0
-51.39,-27.16,19.65,-0.30,-0.41,0.81,0
-48.52,-23.07,17.88,-0.35,-0.35,0.80,0
-47.55,-16.05,18.62,-0.30,-0.32,0.82,0
-44.92,-12.45,23.86,-0.17,-0.32,0.88,0
-39.37,-12.63,30.82,-0.24,-0.37,0.90,0
-33.33,-12.33,33.75,-0.28,-0.40,0.92,0
-26.92,-10.86,32.47,-0.26,-0.39,0.92,0
-23.56,-11.11,30.70,-0.23,-0.41,0.88,0
-20.32,-9.40,29.72,-0.27,-0.44,0.88,0
-15.26,-9.52,28.75,-0.31,-0.39,0.88,0
-14.83,-9.58,28.99,-0.31,-0.38,0.92,0
-12.82,-10.62,32.35,-0.32,-0.36,0.93,0
-7.51,-12.08,34.79,-0.28,-0.34,0.93,0
-5.31,-15.26,36.93,-0.27,-0.37,0.94,0
-10.62,-18.68,40.65,-0.24,-0.34,0.93,0
-17.33,-19.53,41.69,-0.22,-0.36,0.92,0
-22.77,-20.81,41.20,-0.19,-0.32,0.93,0
